MagX1,MagY1,MagZ1,AccX1,AccY1,AccZ1,MagX2,MagY2,MagZ2,AccX2,AccY2,AccZ2,MagX3,MagY3,MagZ3,AccX3,AccY3,AccZ3,Class
-0.01,0.22,-0.34,7.78,-3.19,6.65,-0.83,-0.25,-0.38,0.64,3.73,11.14,1.39,-1.33,0.31,-2.56,-17.97,7.43,2
-0.61,0.07,0.71,8.27,12.43,1.77,0.82,0.2,0.67,-1.8,10.07,3.82,-0.11,0.62,0.46,-12.82,3.02,11.33,2
0.44,0.22,0.11,16.09,5.6,2.74,0.82,0.2,0.37,5.03,-6.04,-6.44,0.79,-0.88,0.01,-12.33,9.37,12.8,2
2.54,-0.53,0.41,-9.79,-16.87,-85.64,2.02,1.25,1.12,-36.96,15.45,20.91,2.14,0.17,-0.14,25.76,27.92,69.93,2
2.69,0.37,-1.39,27.8,-12.47,269.83,3.52,1.1,-1.73,130.03,-22.15,-315.03,1.39,0.17,-1.19,118.04,-68.75,-463.28,2
2.84,3.37,-0.79,-11.75,-18.82,-16.79,2.92,0.5,-1.58,68.02,-52.43,-7.41,2.29,1.37,1.21,19.41,-38.48,54.79,2
2.24,3.97,-0.19,-0.03,-15.4,226.38,3.82,-0.7,-0.23,20.17,-37.29,93.66,3.34,1.22,0.31,17.95,10.35,13.77,2
3.74,2.17,-0.79,46.36,14.38,101.86,6.67,-0.7,2.02,20.66,-24.1,54.11,3.49,1.07,0.01,19.9,15.72,68.46,2
2.84,0.97,0.86,-35.18,-21.75,0.79,7.27,0.5,1.12,-28.17,13.49,21.39,3.64,1.22,2.11,-16.72,-20.42,-0.39,2
1.49,0.37,0.26,30.73,56.38,596,4.42,1.7,1.42,-130.71,-39.24,393.46,2.29,1.07,1.96,371.95,-130.28,-608.78,2
0.59,0.37,2.66,-0.52,-0.26,3.23,1.42,0.35,3.52,4.54,-0.67,-12.78,-0.26,2.72,2.41,2.32,-3.33,-13.57,2
-1.06,-0.38,2.66,4.86,1.69,-1.16,-2.18,-0.7,1.72,-9.62,1.77,15.54,-0.26,3.32,1.66,8.67,0.58,-4.29,2
-2.56,-2.03,0.86,2.41,-1.24,-3.61,-1.88,-0.7,1.72,-3.76,-0.67,-1.07,0.19,1.97,0.31,0.37,11.32,-3.32,2
0.14,1.27,1.46,7.3,5.11,15.93,-2.48,-2.05,0.67,-7.66,-12.39,-6.93,-1.46,0.47,0.91,-26,10.83,4.5,2
-1.66,-0.08,-0.79,15.11,29.03,54.5,-0.53,-1.45,-0.98,-13.52,-3.11,-43.55,-1.76,0.77,-0.44,-32.83,11.32,43.56,2
-1.51,0.07,-0.19,-4.42,16.34,-19.72,-0.83,-2.05,-1.88,48.49,-72.44,23.35,-1.61,-0.43,1.51,-181.27,7.42,-36.52,2
-1.96,1.27,-0.49,53.19,-6.61,61.82,-2.03,-0.55,-6.08,-15.96,50.11,-55.27,-1.61,0.62,0.76,-6.96,4.98,-6.73,2
-0.16,2.02,-0.49,0.46,28.54,23.25,0.67,0.35,-8.63,6.99,-31.43,57.04,-2.51,0.47,-0.14,-86.06,7.91,38.19,2
-0.46,0.97,-1.09,-27.86,25.62,-55.85,2.47,0.2,-5.78,-44.28,63.79,-106.05,-1.76,-1.33,-0.89,-15.74,-4.3,-26.75,2
-0.01,0.22,-1.84,188.45,89.58,-161.32,0.82,-0.25,-3.08,152.98,-217.46,-353.61,-0.26,-1.33,-0.44,146.36,-32.62,514.75,2
-1.06,-0.38,-0.94,-2.47,-6.61,8.6,0.22,0.05,-0.98,2.59,-0.18,-7.9,-0.56,0.47,-0.89,-46.51,-2.84,-28.22,2
-1.06,0.07,-0.94,4.86,-5.63,3.23,-0.38,-1,-0.83,-13.52,-5.06,-2.04,0.34,-0.43,-0.74,-12.82,-0.4,7.91,2
-1.51,-0.38,0.26,10.71,-3.19,-2.63,-0.53,-0.7,-1.43,2.59,13.98,-8.39,-1.01,-2.08,0.61,5.25,-2.84,3.52,2
-0.01,1.42,-0.79,-2.96,8.04,6.65,-0.53,0.35,-0.68,1.61,-7.99,1.38,-0.41,1.37,0.46,-5.49,0.58,-7.22,2
-1.21,-0.08,0.11,-5.89,-2.22,8.11,-0.38,-1,-0.08,-3.76,-4.57,-1.07,-0.41,-0.13,0.46,6.72,2.53,4.99,2
-0.16,2.02,-0.19,4.37,3.15,-2.63,-2.78,0.95,0.67,8.94,5.68,0.4,-1.01,0.77,0.91,-6.96,1.07,16.7,2
-1.66,-0.98,0.86,2.41,9.5,-0.19,-0.83,0.95,0.37,-3.27,-3.6,-5.95,0.19,-0.28,-0.14,-0.12,-0.4,-3.32,2
-0.01,-0.53,1.31,0.95,3.15,-3.12,-0.53,0.05,-0.68,-0.83,-1.16,-1.07,-2.06,-0.13,1.21,-2.07,-10.65,-5.27,2
-0.16,-0.38,-0.19,18.04,9.5,9.58,0.22,0.05,-0.23,1.61,-3.6,-3.02,-1.46,0.17,-0.44,-6.96,-13.58,4.99,2
-1.21,-0.08,0.41,-3.93,12.43,-1.65,-0.38,-0.55,-0.38,2.1,-8.97,-6.44,-1.46,1.22,0.61,-6.96,2.53,-7.71,2
-1.06,-2.33,-0.19,-1,2.67,-9.46,-0.83,0.5,0.67,-4.24,13.49,3.82,-1.01,0.47,0.91,2.32,3.51,10.84,2
0.14,0.82,0.26,-13.21,1.2,-3.61,0.67,0.35,1.27,-4.24,-2.13,-5.95,-0.26,0.47,0.91,2.32,-6.25,5.96,2
0.14,0.37,-0.49,16.09,10.97,-3.12,-0.23,0.05,-0.23,9.43,-1.16,-4,-0.26,0.77,0.31,5.25,5.95,7.43,2
0.59,-1.88,-1.39,3.39,4.62,-7.02,-0.98,0.35,0.22,-7.17,3.73,6.26,-0.26,-0.58,0.91,-1.58,1.56,-6.73,2
-0.61,-1.13,-0.49,-7.35,-5.15,-1.65,-0.83,-1,-0.83,-1.32,1.77,-2.53,-0.41,1.07,-0.29,-2.07,-3.81,-4.29,2
-0.91,-0.08,-0.34,-1,9.01,0.79,0.07,0.5,-0.83,-11.08,-10.92,-0.09,-1.01,0.17,1.66,1.35,-6.25,6.45,2
-1.51,-0.38,-0.19,16.09,-6.61,-3.61,-0.83,0.2,-0.83,-1.32,3.73,-1.55,-0.41,-0.13,1.21,-12.82,0.58,-0.39,2
0.59,0.07,-0.49,-18.09,-17.35,-0.19,0.07,-0.25,1.12,2.1,2.75,1.38,0.94,-0.28,-1.64,-10.86,-8.21,-1.85,2
1.04,-0.38,1.01,-0.03,8.04,-2.14,-0.23,0.05,0.22,-0.83,0.31,-7.41,0.79,0.32,0.46,6.23,-0.4,2.54,2
0.59,-0.68,0.71,-0.52,10.97,-2.14,-2.03,0.2,0.37,-4.73,-6.53,5.28,-0.11,0.62,-0.29,6.72,-11.14,-1.36,2
0.14,-1.13,-0.94,-5.4,2.18,-6.53,-0.38,0.2,-0.83,2.1,-7.99,2.35,-0.11,0.32,-0.74,3.79,0.58,8.4,2
-0.61,0.07,0.26,4.37,0.22,-6.05,0.82,-1,0.37,7.47,-5.06,4.3,-0.26,-0.28,0.91,-5.49,6.93,0.1,2
0.14,-0.38,-0.19,-4.42,-2.71,3.72,-0.23,-0.4,-0.98,-12.55,16.42,8.7,0.79,-0.88,0.46,-7.93,-4.79,-12.59,2
-0.16,0.07,-0.19,-23.95,-5.15,0.3,-0.53,0.8,-0.98,-0.34,6.17,15.54,1.09,-0.43,-0.74,3.3,-0.4,5.47,2
-0.61,1.27,-0.94,14.13,-4.17,1.77,-1.13,-0.25,-0.08,-14.01,-2.13,-1.07,-0.26,-0.28,-0.44,-2.07,2.05,-1.85,2
0.44,0.67,0.11,3.39,5.6,7.14,-0.98,1.1,0.52,0.15,-4.57,-2.53,-1.16,-0.13,0.76,0.37,2.53,-2.83,2
2.24,-0.68,-1.39,6.32,7.55,2.25,-1.88,-0.4,0.67,-1.32,4.22,-9.37,-0.11,0.32,0.01,11.11,1.56,-0.39,2
-0.01,-0.53,0.41,5.83,-1.73,-2.14,-0.23,0.8,-0.68,-0.34,5.19,-2.53,-0.56,-0.28,-0.14,-3.54,-5.77,-1.36,2
-0.01,0.22,-0.34,12.67,-10.03,-6.53,0.82,-0.55,-0.08,0.64,-13.85,4.3,0.94,0.47,-0.14,-3.05,-7.23,0.1,2
-0.01,0.22,-0.34,4.86,-6.12,5.67,0.07,0.5,0.67,12.36,0.31,7.72,-0.86,-0.13,1.51,3.3,2.53,1.08,2
0.08,-0.06,0.35,10.49,7.81,-3.75,0.17,-0.72,-0.29,-9.27,-0.51,-4.19,0.61,-0.6,0.95,1.15,2.01,1.61,2
-0.67,-0.81,-3.25,33.44,2.44,2.11,0.02,0.48,-1.19,-6.34,-1.0,-21.28,-0.74,-0.15,-0.7,-10.08,0.55,-10.1,2
0.53,-0.06,-2.35,-141.36,-41.99,-25.23,0.32,-1.02,-0.89,26.87,-29.32,29.5,1.21,-1.51,0.8,20.68,57.19,140.77,2
-0.67,-0.06,-5.2,41.74,-48.34,-365.07,1.37,-0.72,-2.24,-42.96,-16.14,-233.2,-0.89,-2.56,-1.15,-69.65,16.17,-109.23,2
-1.72,-2.16,-6.55,-9.52,-15.63,79.75,1.22,-0.57,-2.39,8.8,10.72,90.53,-0.89,-1.06,-0.4,-10.57,168.03,78.27,2
-5.02,-2.61,-4.9,-13.43,25.88,74.87,-0.43,-2.82,-0.89,38.1,-47.39,-61.32,-0.74,-1.95,2.0,-29.61,7.38,59.72,2
-6.82,-2.16,-1.45,16.35,-20.51,-2.77,0.02,-3.27,-1.19,58.12,-37.62,-5.66,-1.34,-1.06,0.95,49.98,-18.01,7.47,2
-4.87,0.24,-1.3,61.76,58.1,-248.86,-2.53,-2.07,-0.14,-24.89,65.41,-307.42,-0.74,-0.45,2.0,-535.47,84.04,388.82,2
-2.32,-0.06,2.3,5.12,-1.47,-8.63,-2.23,-1.17,2.71,-4.38,6.32,8.5,-1.34,1.2,-0.4,-13.5,20.08,26.52,2
-0.07,-0.21,2.9,-4.15,-18.56,0.65,0.02,0.18,1.06,-5.36,-4.91,13.39,-0.44,0.74,0.65,4.08,-1.89,-0.83,2
1.88,0.69,0.35,1.71,-15.63,-6.68,0.77,0.48,0.31,6.85,-1.98,-5.66,0.01,2.4,-0.25,0.66,10.8,7.47,2
3.08,-0.81,-1.3,9.03,3.42,0.16,1.82,0.03,-1.49,15.15,-4.91,0.2,1.06,0.15,0.35,-20.34,2.99,10.4,2
1.13,0.84,-1.75,6.1,-4.4,6.02,2.57,0.33,-1.04,1.48,-7.35,3.62,2.11,-0.9,-1.0,7.5,-1.4,-5.22,2
3.53,2.19,-2.35,21.73,3.42,25.06,4.82,1.68,-2.39,-33.19,69.31,-0.78,0.01,-0.15,-1.0,31.91,-35.58,-101.9,2
1.43,3.84,-3.25,10.01,-6.35,27.99,5.27,-0.27,-3.59,-51.75,49.29,-0.29,0.46,-1.51,-1.0,-60.86,-4.33,-80.91,2
-1.12,3.39,-2.8,-26.61,32.22,222.82,4.97,-0.42,-3.29,-5.36,-44.46,258.01,-0.44,-1.06,-0.85,-1.78,2.5,-79.93,2
-2.32,2.64,-3.25,38.82,-3.42,-215.17,3.17,-0.27,-4.34,-58.58,-2.46,113.97,0.46,-1.95,0.05,-2.76,83.56,157.86,2
-1.57,3.09,-1.3,-344.49,7.32,160.8,0.32,-0.57,-3.59,-92.27,82.99,79.3,-1.34,-0.31,1.7,22.63,33.75,22.61,2
0.08,-0.51,-1.3,5.61,-12.7,5.04,2.12,0.03,-1.79,7.82,-1.98,4.11,0.01,-1.2,0.5,471.85,-112.73,-429.54,2
0.38,-0.21,-0.7,9.03,-3.91,0.65,0.32,-0.27,-1.19,-2.92,-7.35,-3.7,-0.89,-0.31,-0.1,0.17,-1.4,3.57,2
-1.12,-1.26,-0.1,-3.18,4.88,-6.19,-0.58,0.03,-0.74,5.38,7.79,7.04,-0.14,-0.6,0.95,7.01,5.92,14.8,2
-0.67,0.69,-0.4,0.24,-3.91,-1.31,0.62,-1.17,-0.29,-9.75,-1.98,-0.29,0.91,0.3,0.05,-3.73,3.97,0.64,2
1.58,0.84,0.5,0.24,-7.81,1.14,0.62,0.78,-0.29,8.8,-10.76,1.18,0.31,0.15,0.35,-4.71,12.27,14.31,2
0.83,-0.21,0.5,-2.2,-13.67,8.95,1.37,-0.72,-0.74,-6.82,-4.91,9.48,2.26,-1.06,0.35,0.66,-3.36,0.64,2
-0.97,2.04,0.2,2.68,6.35,9.44,-0.43,-0.27,-0.44,-0.48,-0.51,0.2,0.31,-0.6,-0.1,-2.27,-3.36,3.08,2
-0.52,0.09,0.5,0.24,-7.33,8.95,0.02,0.18,-0.14,2.94,-13.21,6.06,-0.74,-0.15,-1.0,-7.15,-1.89,6.5,2
-0.22,-0.51,0.35,-11.48,-3.91,2.11,-0.43,0.93,0.61,-7.8,-3.93,2.64,0.91,-0.9,-0.25,-15.94,1.04,0.15,2
0.53,0.69,0.8,9.52,-8.79,-1.31,0.17,-0.72,0.16,2.45,2.91,-6.63,-0.29,-0.15,1.25,-2.27,6.9,5.03,2
-0.52,-0.66,0.2,7.57,0.49,0.16,0.62,-1.17,0.46,14.66,5.35,-1.26,0.91,-0.15,-1.45,-7.64,-3.85,-8.15,2
-0.22,-0.06,0.35,-5.13,-5.37,-2.77,0.02,-0.27,0.61,14.17,7.79,7.53,-0.29,0.3,-0.25,-2.76,4.94,-1.32,2
0.53,-0.06,-0.1,2.19,-0.49,13.34,0.02,-1.02,0.31,12.22,-1.98,5.08,1.06,0.44,-0.1,6.03,0.06,-4.73,2
-0.52,0.84,0.95,0.24,-13.67,5.53,-0.28,0.18,0.31,-3.89,-0.02,-8.59,0.46,-0.15,-0.7,-4.22,1.53,-2.78,2
-0.67,-0.51,-0.1,4.64,0.97,7.97,0.17,-1.17,-0.74,7.34,-9.3,-2.73,-0.89,-0.6,-0.4,3.1,-8.73,10.4,2
2.03,0.54,-0.25,-8.55,2.44,8.95,0.32,-0.57,0.61,4.89,-1.98,4.6,-1.04,-0.45,0.05,4.57,-2.87,6.5,2
-0.07,-0.66,0.95,6.1,-0.98,-7.65,-0.28,1.08,0.46,6.85,-3.44,2.15,-0.14,-0.6,-0.85,4.57,-1.4,7.96,2
-0.52,0.54,-0.25,5.12,-4.88,-2.28,0.02,-0.27,-0.89,5.87,14.63,-7.61,-0.14,0.15,-0.4,8.96,5.92,5.52,2
0.83,-0.66,-1.0,14.4,1.95,-2.77,0.62,0.78,-1.04,1.96,-2.46,8.01,1.06,0.44,0.65,-4.22,1.53,7.96,2
-0.22,-0.06,0.8,1.22,1.95,-3.75,-0.28,-0.42,0.16,6.36,7.3,10.94,0.31,-0.6,-0.4,-4.22,-3.85,-2.29,2
-0.22,-0.06,0.35,1.71,1.46,10.9,-0.58,0.03,-0.74,3.92,-1.49,7.53,0.01,-1.2,-0.25,3.1,4.94,1.61,2
1.13,0.09,-0.25,1.71,-6.84,6.51,0.62,0.33,0.16,5.38,-3.93,-0.29,-1.49,-0.9,0.05,0.17,2.5,5.52,2
-1.27,-0.66,-0.7,-0.74,-1.47,0.16,1.22,0.18,-1.19,-6.82,-0.51,3.13,-0.14,0.44,0.95,8.47,-7.75,2.1,2
0.83,0.54,-0.25,2.19,-4.88,-0.33,-0.43,0.48,-0.44,8.8,-2.46,-4.68,0.46,0.3,-0.7,6.52,-1.89,9.43,2
-0.22,-0.51,-0.4,10.01,7.32,-0.82,0.92,-0.42,0.46,-0.97,-12.72,0.2,-0.89,0.74,-0.1,7.5,8.85,3.08,2
-0.97,-0.21,0.95,0.73,6.83,-2.28,0.17,0.03,0.16,-0.48,0.95,-2.73,0.31,0.15,-1.9,-9.59,3.48,-3.27,2
-1.12,0.69,-0.85,0.73,7.81,4.55,-0.43,0.93,-0.14,4.89,-2.46,10.46,0.31,0.44,-0.85,5.05,6.41,14.31,2
-0.22,0.24,-1.3,10.98,0.97,-8.14,-0.58,-1.17,0.91,-3.89,1.93,-2.24,0.61,1.2,0.95,-13.01,6.41,2.59,2
-0.22,-0.51,-0.1,-0.25,-7.33,-0.82,0.62,0.03,1.21,5.87,1.44,-2.73,0.31,0.44,-0.4,-3.25,-5.31,-0.83,2
-0.52,0.09,0.95,-0.25,2.44,-2.28,1.22,0.48,-0.14,7.82,-8.32,15.34,-1.34,-0.31,1.4,-10.08,-6.78,7.47,2
-0.22,-0.51,-0.1,-0.25,-1.95,3.09,-0.28,-0.72,0.16,3.43,-0.51,0.2,-0.89,0.44,0.35,-7.15,-3.36,-3.27,2
1.13,-0.21,0.95,9.03,2.44,4.07,0.77,-0.57,0.31,-12.2,2.42,-7.61,-0.74,1.05,1.25,-5.2,-5.31,11.38,2
-0.67,1.44,-0.1,11.96,3.9,-6.68,-0.58,-0.42,-0.29,3.92,7.3,1.67,-1.94,0.3,0.5,-16.43,10.8,1.61,2
-0.22,0.69,-0.85,29.54,-1.95,12.37,-0.88,-0.27,2.26,-10.24,7.79,-19.82,-0.89,0.15,-0.1,19.21,7.38,-10.59,2
0.83,-0.21,2.15,-79.35,-19.04,-42.81,0.32,0.18,1.06,13.68,-22.0,-5.66,0.61,1.49,0.35,-29.61,54.75,120.27,2
0.53,-1.71,3.05,-410.89,-83.99,-402.67,2.57,2.58,5.41,-86.41,30.25,-252.73,1.06,2.7,0.95,341.97,-32.17,-3.76,2
-0.22,-4.41,3.05,282.47,26.37,-23.28,1.22,3.18,17.41,238.29,-195.34,44.15,0.01,2.85,2.0,60.23,-133.24,-38.42,2
-0.07,-5.31,4.85,-21.24,4.88,80.73,-3.13,2.28,29.56,21.98,45.88,-1.75,0.31,4.5,0.95,105.15,36.68,36.28,2
0.38,-5.76,3.65,-28.57,29.3,43.13,-6.73,0.03,32.11,-71.77,1.44,86.14,1.06,4.8,0.95,-60.86,4.94,-67.72,2
-0.07,-4.56,4.55,-16.85,38.08,2.6,-7.33,-2.52,24.76,-4.87,23.9,-20.79,0.31,5.25,0.65,46.07,-23.87,-29.64,2
-0.67,-3.21,4.7,-58.84,-24.9,-194.18,-6.13,-4.02,15.91,37.12,-136.74,100.3,0.01,3.9,2.0,-28.64,51.82,120.27,2
-0.22,-3.21,3.95,11.96,-7.33,-9.61,-1.48,-1.92,7.66,-3.41,4.86,10.94,0.91,3.6,2.6,3.59,67.44,202.3,2
-1.12,-1.71,3.05,0.73,4.88,4.55,-1.03,-0.42,6.16,-11.22,-5.39,-5.17,1.06,3.3,2.15,-1.78,-3.36,-1.32,2
-2.17,-0.66,1.7,-6.6,-8.79,1.62,-1.63,-1.77,3.31,-13.17,2.91,-0.29,0.31,2.25,3.65,0.66,-0.43,5.03,2
-2.62,-0.21,1.7,13.42,-2.93,2.6,-1.63,-1.02,1.81,0.01,9.25,1.18,-0.74,0.6,2.0,-0.8,0.55,3.08,2
-1.27,-1.11,0.2,2.19,6.83,-3.26,-1.93,-0.72,0.16,5.38,15.6,4.6,-1.49,-0.15,1.25,2.61,-1.4,23.1,2
-1.57,-0.81,0.35,-13.43,-25.39,-22.79,-1.48,-1.47,-1.04,21.98,14.14,20.71,-2.69,-0.15,0.8,-11.06,-17.03,6.01,2
-1.72,0.84,-0.25,-74.95,19.04,-74.06,-2.08,-1.02,-1.19,-108.88,-15.65,-23.24,-2.39,-0.6,-0.1,148.12,-108.83,-195.16,2
-3.82,1.29,-2.2,-88.63,6.83,253.58,-2.53,-1.77,-4.34,-10.24,27.32,75.89,-1.64,1.2,1.7,82.2,1.53,-72.6,2
-2.77,1.89,-0.4,6.1,-3.91,115.88,-2.53,-1.32,-6.14,55.19,-35.67,60.26,-0.74,-0.45,0.8,79.27,34.24,20.17,2
-2.92,1.59,-0.7,-88.63,26.85,-5.21,1.22,-1.32,-6.59,63.49,-15.16,-85.25,-0.74,0.3,-0.25,90.5,31.8,28.96,2
-2.77,1.44,-2.35,-20.27,0.49,-159.51,0.32,-0.57,-5.09,3.43,16.58,-67.18,-0.44,-0.31,-0.1,28.0,12.76,56.79,2
-0.52,0.84,-1.45,47.6,-26.37,15.3,0.02,0.18,-2.84,-33.68,35.13,-12.01,-0.29,-0.15,-0.25,-0.32,-12.15,57.77,2
-1.12,0.24,-2.35,-9.52,2.93,-0.82,0.17,0.03,-2.54,-109.36,116.68,-27.63,-0.14,-0.6,-0.1,-196.61,87.46,292.14,2
-1.72,0.09,-0.7,0.24,4.39,2.11,0.62,0.78,-0.74,10.27,-1.0,-5.17,-0.44,-0.6,-1.15,7.5,0.06,11.87,2
-0.67,1.14,-0.85,-7.57,8.3,-2.28,0.02,1.23,0.31,-1.45,16.58,-7.12,-0.29,-0.15,-0.25,3.1,-11.66,5.03,2
-0.07,-0.21,-0.25,8.54,2.44,1.62,-0.58,0.03,1.66,-0.97,1.44,-10.54,-0.29,0.6,-0.7,22.63,3.48,3.57,2
-1.27,0.54,-0.25,-1.22,-1.47,1.14,0.17,1.08,0.46,4.41,-8.81,-2.73,-1.04,-0.45,1.25,8.96,-9.22,6.01,2
0.38,0.09,0.95,2.19,-3.91,1.14,0.02,0.18,-0.89,-3.89,-1.49,-3.7,-1.49,0.6,0.5,9.45,2.99,3.57,2
-1.12,1.14,-0.4,-7.08,-6.35,-15.47,1.37,0.33,0.46,7.34,4.86,-8.59,0.61,-0.6,0.35,-6.66,8.36,1.61,2
-0.07,2.49,-0.7,5.12,-5.37,8.95,0.77,-0.57,-0.44,-0.97,11.7,-0.29,-0.44,1.2,0.95,-2.76,-3.36,7.47,2
-1.57,-0.06,1.1,-0.74,3.9,-2.77,-1.48,0.33,0.46,-5.85,0.47,-4.19,-1.49,-0.45,0.5,0.66,-11.66,11.87,2
-0.52,0.09,-0.7,3.17,1.46,3.09,-0.88,0.48,0.31,-4.38,-5.39,-3.7,-0.44,0.15,-0.1,-9.11,-4.33,3.57,2
-1.27,-0.21,-1.0,8.05,-3.42,-3.75,-0.28,0.33,0.46,5.87,-1.98,4.11,-0.74,0.3,0.8,13.84,9.34,14.31,2
-1.57,-1.26,0.35,10.49,1.46,-6.68,0.32,-0.27,0.31,0.5,5.35,3.13,0.01,-0.45,-1.0,-3.25,4.94,5.03,2
0.98,0.24,-0.1,-13.43,-11.23,2.6,-0.58,0.33,0.46,-0.97,0.95,11.92,0.31,-0.6,0.35,7.98,-5.31,9.92,2
-0.22,-1.26,0.35,6.59,-0.0,-10.58,0.92,-0.42,0.46,-13.66,8.28,-2.24,-0.29,1.05,0.8,-5.2,-2.38,9.92,2
-0.22,0.69,0.35,1.22,1.95,-4.24,0.17,-0.72,0.91,4.89,-3.44,-1.75,-0.89,-0.6,-0.85,-5.69,-14.59,12.36,2
-1.57,0.24,0.8,4.64,-3.42,7.97,0.17,-0.42,0.16,1.48,-1.49,0.69,0.31,0.44,0.95,-7.15,14.22,1.61,2
-0.22,-0.51,-0.1,18.31,-9.28,-3.26,0.92,0.33,-0.29,5.38,1.93,5.57,0.61,-0.6,0.65,1.64,-1.4,7.47,2
-0.97,-0.21,0.2,-0.74,13.18,1.62,0.77,-1.32,-1.19,-1.45,-3.44,2.64,-0.89,-0.6,-0.25,-2.76,-8.73,9.92,2
0.98,0.69,0.8,5.61,-4.88,5.53,0.02,-0.27,-0.44,-6.34,-0.51,4.6,-0.14,-0.6,0.35,2.61,11.29,8.45,2
0.38,-0.66,1.4,2.68,-12.21,3.58,0.17,0.33,-0.74,9.29,-6.37,-2.24,0.01,-0.15,0.5,-5.69,0.55,9.43,2
-1.27,-0.66,0.2,-0.25,-14.16,-1.79,0.77,0.48,0.61,-8.29,-0.51,0.69,-0.29,-0.9,0.8,-1.78,-3.85,8.45,2
0.08,-0.51,-0.1,7.08,-2.44,5.53,0.17,1.08,1.21,10.27,1.44,-0.29,-0.14,0.74,0.65,-1.29,-9.22,6.5,2
-0.97,-0.21,0.95,11.96,-1.47,10.9,-0.28,0.78,0.16,-7.8,5.35,5.08,-0.29,-0.45,0.05,-3.73,-2.38,6.01,2
0.08,0.24,-0.4,-1.71,1.46,-2.77,-1.03,0.03,0.16,-12.2,5.35,4.11,-0.14,0.44,-0.4,-5.2,10.31,-0.34,2
-1.12,-0.06,0.35,-5.13,8.3,-6.19,0.02,-0.57,-0.44,1.96,3.88,-0.78,0.91,1.05,0.5,-4.71,-5.31,5.03,2
-0.52,0.54,0.2,8.54,-7.33,-3.75,-0.28,0.33,0.16,1.96,-3.44,-0.29,0.31,-0.31,0.95,4.57,11.29,5.03,2
-0.97,-2.16,-0.25,10.01,-4.4,-4.24,0.17,-0.42,-2.24,1.96,2.91,10.94,0.01,-0.15,0.5,-3.73,-4.33,1.61,2
-1.57,0.24,-0.85,-4.64,11.72,-7.65,-0.43,-0.57,1.06,0.01,-4.91,3.62,0.31,0.15,0.95,-5.69,6.9,3.08,2
0.08,1.14,-1.6,-4.15,-3.91,-3.75,1.22,-1.02,0.31,0.01,-4.42,-12.98,1.51,0.44,-0.4,-0.8,-4.82,4.06,2
-1.57,-0.51,-0.85,14.89,-2.44,-5.7,-1.63,-0.27,0.31,-4.38,-1.49,16.8,-0.44,-0.31,0.65,-5.2,4.94,5.03,2
-1.12,-0.51,-0.1,10.98,-8.3,-10.58,-0.43,-0.57,-0.44,7.34,3.88,-3.7,-0.89,-1.06,-0.1,-7.64,6.9,4.06,2
-0.07,0.84,0.2,4.64,4.39,3.09,-0.43,-0.27,-1.19,0.99,-3.44,8.5,-0.14,-0.31,0.35,1.64,12.27,8.45,2
2.48,-0.66,-2.95,56.39,17.58,29.46,2.57,0.78,-1.04,-10.73,2.42,-47.16,-0.89,-1.35,-0.4,19.7,0.06,-28.66,2
3.83,0.69,-4.75,-11.48,-2.44,-391.93,1.97,-2.07,-0.44,56.65,-75.22,234.09,-0.14,-0.31,0.35,85.62,-14.1,16.26,2
6.68,-0.06,-12.7,-31.99,0.49,33.85,1.97,0.18,-0.89,-35.14,24.39,-84.76,-0.89,0.15,1.7,-54.03,24.47,-14.5,2
2.18,0.24,-14.65,135.01,-39.06,-260.58,2.42,-1.77,-0.14,-8.78,-7.84,78.81,0.31,-1.35,0.95,-97.48,21.06,60.7,2
-2.32,0.24,-8.65,40.77,16.6,-166.83,1.52,-1.32,-0.14,112.8,-20.53,-100.38,-0.14,-1.06,-0.1,-35.47,-10.68,47.51,2
-2.77,-0.06,0.8,150.63,-175.78,-1425.13,-0.28,-1.47,-0.29,-113.27,-527.85,1017.23,-0.14,-0.31,0.95,554.86,-301.7,-1277.19,2
-2.02,1.14,1.85,2.68,-9.28,-0.82,-1.93,0.03,1.96,-3.41,-5.88,5.08,-0.14,0.74,0.95,11.4,-3.36,0.15,2
0.83,0.09,2.45,0.73,2.44,-0.33,0.77,0.93,0.31,6.85,-10.28,8.99,0.91,0.6,0.5,13.36,0.55,-12.06,2
1.58,0.09,1.4,13.91,-9.77,-8.14,0.32,1.23,1.06,8.31,-7.84,-3.22,2.11,1.05,0.05,-1.78,-5.8,14.31,2
2.48,0.54,1.7,41.26,-23.44,-27.67,0.92,1.83,1.96,-3.89,11.21,50.98,1.21,0.3,0.8,10.43,2.01,-11.08,2
0.38,-0.21,3.65,51.02,93.26,-141.44,-0.88,1.68,1.81,-20.5,-50.8,-49.6,1.06,0.44,-0.1,-66.72,-121.03,28.47,2
-0.67,-1.26,2.75,385.98,138.67,7.0,0.17,1.83,2.71,-137.68,73.22,444.05,-0.14,-1.06,-0.1,-87.23,151.92,212.55,2
-0.67,-0.06,1.1,3.17,-98.63,161.29,0.02,2.43,1.81,47.37,108.86,-329.39,-0.74,1.65,-0.25,251.15,-44.37,-353.37,2
2.63,-0.06,1.1,275.14,-110.84,-2080.41,0.02,1.68,0.31,73.74,-357.93,938.19,0.31,0.74,-0.4,490.89,-219.18,-926.61,2
0.38,0.09,0.5,10.98,8.3,-11.07,0.62,0.33,0.16,-2.43,-9.3,23.64,0.01,1.35,-0.25,-2.76,-5.31,7.96,2
-0.52,0.09,-0.25,0.24,-16.6,-3.26,0.32,0.93,-1.64,-8.29,2.91,-14.94,0.31,1.2,-0.4,-3.73,5.92,14.8,2
0.38,0.54,0.5,-4.64,5.86,7.0,-0.58,1.08,0.91,0.99,1.93,8.5,0.61,0.74,-0.1,-13.99,-0.43,4.54,2
0.38,0.09,1.4,15.38,9.28,-6.19,0.02,1.23,1.06,8.8,9.74,-6.15,0.91,0.3,0.05,5.54,0.55,0.64,2
-0.22,0.24,1.1,3.17,-3.91,-4.24,-1.18,0.18,0.31,0.01,1.93,-1.26,-0.44,-0.31,0.35,3.59,-4.33,8.45,2
-0.22,1.14,-0.85,6.59,3.9,4.55,0.02,-0.27,0.31,6.85,2.42,6.06,0.91,-0.15,0.05,5.54,4.94,18.22,2
-0.67,-0.51,1.1,6.1,-12.7,17.74,0.77,0.18,-0.14,1.48,-6.86,-10.54,1.06,-0.6,-0.1,-3.73,-0.43,13.33,2
1.13,0.54,0.5,-6.6,1.46,-6.68,0.02,0.18,-0.14,4.89,-1.98,5.08,-1.49,-0.15,0.05,-18.38,-10.19,-9.62,2
-0.67,1.44,-0.85,-6.6,-6.35,7.48,-1.18,0.93,0.61,4.41,-0.51,-7.61,-0.89,-0.31,0.65,0.66,-2.87,18.22,2
-0.07,-0.21,0.2,3.17,5.37,10.41,0.92,0.03,0.16,-8.29,-7.35,3.62,-0.89,0.15,0.95,13.84,-3.85,7.47,2
-0.67,0.24,-0.4,0.24,10.74,-8.14,-0.43,-0.27,-0.14,-5.36,3.88,-7.12,-0.74,0.3,-1.0,-3.73,1.53,10.89,2
-0.67,-0.51,1.85,5.12,6.83,-5.21,-1.63,-1.02,0.61,2.45,0.47,-1.26,0.31,-0.6,0.35,-8.62,-1.4,2.1,2
-0.22,-0.06,1.1,0.24,4.88,-6.19,-0.43,-0.57,-0.89,-3.89,-0.51,-19.33,-0.44,0.15,0.35,-5.2,-1.4,8.94,2
-0.67,0.69,0.35,15.38,-1.95,3.58,0.32,-0.57,0.31,4.41,-3.44,0.69,-0.89,0.15,0.65,-16.92,0.55,-11.57,2
-0.52,0.09,0.2,-0.25,-12.21,-1.79,1.37,0.03,-0.74,-1.45,0.47,-5.66,1.51,1.2,0.65,-4.22,0.55,-1.8,2
0.38,-0.21,0.5,8.05,11.72,-0.33,-0.88,0.48,0.61,7.34,1.93,-0.29,-1.34,-1.35,-0.1,-11.55,6.9,9.43,2
-0.07,0.54,-0.25,-3.67,5.86,2.6,0.02,0.18,-1.19,-6.34,5.84,-17.38,0.01,-0.45,0.5,14.33,3.48,-12.06,2
-0.52,0.54,-0.25,3.66,1.46,-8.63,0.62,0.33,0.16,11.73,9.25,-0.29,0.46,-0.45,1.25,0.17,4.94,-1.8,2
0.53,0.24,-0.4,8.54,9.76,-1.79,0.62,0.33,-0.29,-5.85,-5.88,-8.1,-0.74,-1.2,0.8,-2.27,9.83,6.5,2
0.38,-0.66,-0.25,-0.74,5.86,5.04,-0.43,-1.02,-0.14,4.41,4.37,2.15,0.61,0.44,0.65,3.1,9.34,5.03,2
-0.67,-0.51,0.35,4.15,1.46,14.81,0.62,1.53,0.46,-12.2,3.88,-1.75,1.51,-1.06,-0.1,6.03,8.85,4.06,2
-0.97,-0.21,-0.25,6.59,2.93,-1.31,0.32,-0.27,0.31,-5.36,6.81,-1.75,0.61,1.2,0.65,-0.8,0.55,5.03,2
-0.52,0.84,0.95,-3.67,3.9,-1.79,0.02,-1.32,0.61,3.43,-7.84,9.48,0.61,0.44,-0.4,-9.11,0.06,5.03,2
-0.67,-0.06,1.1,-0.25,-0.49,-7.16,-0.43,-0.27,1.06,5.38,-0.51,-0.29,-0.44,0.15,0.95,-6.66,2.99,7.47,2
0.53,-0.51,-0.4,6.1,2.93,-3.75,0.32,0.18,0.61,5.87,9.25,-6.63,-0.89,0.44,-0.85,-9.59,6.9,2.1,2
-1.12,1.44,0.8,9.03,0.49,3.09,-1.03,0.78,0.91,0.01,7.79,-4.19,-0.44,-1.06,0.35,-2.76,-8.73,4.54,2
-2.62,-1.11,0.5,4.64,6.83,5.53,1.22,1.23,0.31,-7.8,-2.95,0.2,-0.74,0.6,1.55,-4.22,7.87,6.5,2
-0.52,0.84,0.95,10.98,4.39,-7.16,0.32,-0.27,-0.14,2.94,-2.95,7.53,1.81,-0.31,0.35,-7.15,9.83,0.15,2
0.08,-1.71,0.8,15.38,-3.42,-2.28,0.77,-0.27,-0.44,7.34,1.44,2.15,-0.14,-2.56,-0.1,-1.78,10.31,2.1,2
0.53,0.69,-1.3,2.68,4.39,3.58,1.37,0.33,-1.79,-6.82,-8.81,1.18,0.46,-0.45,0.05,1.15,4.45,3.57,2
-1.27,0.54,0.95,-2.69,2.93,6.02,0.77,1.23,-0.89,4.89,-1.49,6.55,-0.44,-0.31,0.35,-1.29,-0.92,10.89,2
-1.12,-0.51,-1.3,8.05,-14.65,-5.21,-1.03,0.03,1.21,3.43,2.91,7.04,-1.94,0.6,-0.25,0.66,1.04,7.96,2
0.08,0.69,1.1,3.17,-1.47,-4.72,0.32,0.18,0.31,-7.31,2.42,-5.66,-1.04,0.3,0.05,3.1,-1.89,15.77,2
0.38,0.54,0.5,-31.01,9.28,13.83,0.02,-0.57,-0.14,55.68,-10.76,-9.56,0.46,1.35,0.8,-6.66,-11.17,-25.73,2
1.13,0.54,0.2,-56.4,-76.17,-200.04,0.32,0.18,2.26,-122.06,102.52,-341.6,2.11,1.05,0.8,-25.71,11.78,-15.48,2
1.88,0.24,-0.4,4.15,47.36,-116.54,0.17,-1.92,0.91,76.18,-13.69,-72.06,1.51,3.3,4.7,-6.18,12.27,69.0,2
-0.52,-0.21,1.4,29.54,66.89,-14.98,0.62,-4.92,2.71,15.15,-16.62,37.8,1.21,7.5,10.1,-11.06,-4.33,50.44,2
2.63,-2.76,0.8,-31.01,10.25,-249.35,2.42,-1.32,2.56,-0.97,46.85,34.38,-0.74,5.4,8.15,-151.68,2.99,190.58,2
0.08,-2.01,0.8,313.72,-167.97,557.78,0.17,-2.37,3.91,193.37,-96.21,-36.42,-0.14,3.75,4.4,-1.29,-10.68,220.85,2
-0.22,-2.01,3.05,-6.6,9.76,17.25,0.02,-1.77,3.76,-6.82,-13.21,12.9,1.06,2.25,4.7,1.64,-8.73,10.4,2
-1.27,0.54,1.4,1.71,5.86,18.71,-0.88,-2.82,3.31,3.92,-11.74,12.9,-0.14,1.2,4.7,24.1,2.01,-10.59,2
-1.72,-1.11,1.4,54.93,-2.44,21.16,-0.88,-0.27,1.81,-27.82,9.25,-24.21,0.91,1.05,2.6,-7.15,12.76,-0.83,2
-0.22,0.24,0.8,-119.39,-91.8,-254.72,0.32,-1.02,1.36,14.66,14.14,124.22,-0.14,1.2,0.95,19.7,85.02,314.6,2
-2.17,-0.21,0.2,49.07,13.18,-13.51,0.17,-1.47,0.91,-19.52,4.37,-200.97,-0.89,1.95,1.4,-63.3,33.75,109.04,2
-0.07,0.54,-0.25,-88.14,40.53,93.91,1.22,-4.32,1.81,-10.24,77.61,-11.52,-1.04,3.9,3.8,-87.72,1.53,188.14,2
0.83,-0.21,-0.25,-236.09,-168.46,-337.73,-1.03,-0.72,1.66,-229.48,168.92,-175.58,-0.14,2.7,2.9,-160.96,63.05,545.07,2
-1.12,-0.51,0.35,4.15,14.65,1.14,-1.18,0.18,0.61,-188.47,-90.35,-38.37,0.31,0.44,1.7,-199.05,-59.02,-578.46,2
-0.52,-0.66,1.4,-3.67,-6.84,-6.19,-0.58,0.03,0.46,5.87,-0.02,-8.1,0.61,0.44,-0.1,-11.55,-3.36,-5.22,2
-0.22,1.14,1.1,9.03,-8.79,2.11,0.02,0.18,-1.19,-12.68,4.37,0.69,0.46,0.3,-0.7,-5.2,1.53,9.43,2
-0.22,0.24,-0.85,6.59,5.86,8.95,0.02,0.18,0.31,7.82,2.91,-1.75,1.21,0.3,0.05,5.54,5.43,11.38,2
-0.07,0.54,-0.25,20.26,-5.37,-3.75,-0.28,0.33,-0.29,-0.48,1.44,-13.96,0.31,1.49,0.35,2.61,1.04,-1.32,2
-1.27,1.29,-0.7,6.1,10.25,-8.63,0.32,-0.27,0.31,5.38,-5.88,-13.96,0.46,-0.45,0.5,-8.62,2.01,6.5,2
-1.12,-0.06,0.35,3.17,4.88,-14.98,0.02,-0.27,-0.89,-10.73,-1.0,8.5,-0.29,0.3,0.05,9.45,-2.87,-4.73,2
-0.07,1.29,0.95,-0.74,-4.88,-6.68,-1.03,-0.42,-0.14,9.29,-3.44,2.15,-0.29,0.6,0.5,1.15,2.01,21.63,2
0.38,0.54,0.2,10.49,3.9,7.0,-0.43,0.18,-0.44,-3.41,-9.79,0.2,-1.04,0.3,-0.25,12.87,6.9,0.15,2
-0.67,-0.51,-0.85,14.89,-4.4,4.07,0.02,-1.02,-0.89,7.34,7.79,-13.47,0.46,-0.45,1.25,7.5,11.29,13.33,2
0.83,-0.21,1.4,4.15,-5.86,1.62,0.17,0.78,0.46,2.94,-1.98,3.62,1.06,0.15,0.35,10.91,-7.75,9.43,2
-0.67,-0.06,-0.85,1.22,1.95,-8.63,0.17,-0.42,0.46,-7.31,14.63,-3.7,-0.74,1.65,0.05,3.1,6.9,-11.57,2
-0.52,-0.66,0.95,10.49,-0.98,-5.7,-0.43,-0.27,-0.44,-1.94,-2.95,-6.63,-1.49,-0.15,0.05,-16.43,0.55,1.13,2
-0.22,1.14,1.1,6.1,-5.37,-5.7,1.22,0.18,-1.19,6.36,3.88,-4.19,-0.29,-1.2,0.05,4.08,2.99,5.03,2
-0.22,0.69,1.55,-0.25,-3.91,0.16,0.02,-0.27,0.61,8.31,-1.98,-3.7,0.31,-0.31,0.95,3.59,-13.12,-4.24,2
-0.22,1.14,-0.1,-0.74,11.23,2.6,0.62,-0.72,-0.29,-0.97,1.44,-9.08,-0.29,-0.9,0.8,-12.52,5.92,3.57,2
-0.07,-1.11,0.5,10.01,-2.44,-2.28,-1.03,1.53,0.46,0.01,2.91,-16.4,-0.14,0.74,0.35,3.1,0.55,12.84,2
-0.97,0.54,0.5,-2.69,-0.49,-1.79,2.12,1.08,0.16,8.31,4.37,11.43,-1.34,-0.6,0.95,-4.71,1.04,4.54,2
0.53,0.69,-0.4,4.64,-16.11,-11.56,-1.18,-1.32,0.31,7.34,0.47,-2.24,-0.29,-0.15,0.05,-4.71,5.92,-6.69,2
-0.97,0.09,0.5,18.31,-0.98,3.09,-0.28,0.78,0.91,-7.8,3.4,1.67,-0.29,-0.45,-0.7,-12.52,2.99,6.5,2
-1.57,1.14,-0.4,5.61,-1.47,-0.33,-0.28,0.03,-0.29,9.78,-9.79,-0.78,0.31,-0.31,0.35,-1.29,1.04,6.99,2
-1.12,0.24,0.8,-4.64,-6.35,0.16,1.22,-0.27,0.31,0.01,-5.88,-3.7,-0.14,1.2,1.4,-11.55,13.73,-3.76,2
-0.22,0.24,0.35,13.42,11.72,9.93,0.17,0.33,-0.29,-1.45,-1.0,2.15,0.61,-0.6,0.65,13.36,-2.87,5.03,2
0.53,1.14,1.1,7.57,2.93,-1.79,0.32,0.48,-0.89,8.8,3.4,-0.29,0.46,-1.51,0.5,5.54,1.53,-1.8,2
-0.22,0.69,-1.6,-1.22,-3.91,-11.07,0.02,0.93,0.61,-3.89,0.95,-5.17,-1.04,-0.45,0.05,3.1,7.87,5.03,2
-1.27,0.54,0.5,9.52,-3.42,11.88,0.17,-0.42,-0.29,-2.92,0.95,2.64,-1.49,-0.15,1.25,-1.78,1.53,5.03,2
-0.67,-0.81,0.35,22.21,-8.79,-3.26,0.17,0.33,0.16,6.36,-1.98,4.6,1.06,0.15,0.35,3.1,-1.89,-0.83,2
-0.52,0.09,0.95,-1.22,-5.37,-6.68,0.02,-0.27,-0.44,3.43,-3.44,-6.63,-0.29,-0.15,0.05,2.61,-6.78,-0.34,2
0.38,1.29,0.5,0.24,-3.91,-4.24,0.17,1.53,-1.04,-2.92,-2.46,-0.78,-0.89,0.15,-1.6,14.33,8.85,11.38,2
0.38,0.84,-0.7,4.15,-3.42,-2.28,0.17,-0.42,1.21,0.5,0.95,-10.05,-0.44,-0.6,0.65,-0.8,1.04,3.08,2
-0.07,0.54,-0.25,-1.71,18.06,2.6,-0.58,0.33,-1.04,11.73,0.95,-9.56,1.21,0.6,-0.25,2.12,1.53,8.94,2
-0.07,0.54,-0.7,-4.64,-6.84,-4.24,0.32,0.93,-0.14,-1.94,-4.91,-11.52,-1.34,-1.35,-0.1,7.98,7.38,6.5,2
-1.12,1.44,0.35,5.61,17.09,3.58,-0.28,0.03,-0.29,2.45,2.42,5.57,0.01,-0.15,-0.25,-3.73,2.5,0.64,2
0.38,0.54,-0.25,22.21,1.95,6.02,1.22,0.48,0.31,0.5,-1.98,2.15,-0.29,-0.15,1.25,4.08,2.01,6.01,2
0.98,-0.51,-0.85,14.4,-0.49,6.51,-0.88,-0.27,0.31,-11.22,-4.42,-2.73,-1.34,-0.31,0.65,3.59,16.17,4.06,2
-1.27,0.54,0.2,10.01,-2.44,6.02,-1.03,0.03,0.16,1.96,10.72,-12.98,-0.89,0.15,1.4,0.66,0.06,11.38,2
-0.67,1.44,-0.4,6.59,-4.88,8.46,-0.88,0.48,-0.14,-4.87,-9.79,3.62,-0.29,0.6,3.8,2.61,-0.92,7.96,2
-0.22,1.44,-0.85,10.98,-6.84,-2.28,0.62,0.03,0.16,1.96,3.88,3.13,-1.04,-0.15,0.05,5.54,-0.92,-6.69,2
-0.97,0.09,1.7,-12.94,6.35,-3.75,0.02,1.23,-1.19,13.19,-9.3,8.5,-0.29,-0.15,-1.45,-16.43,4.45,9.92,2
-0.67,-0.06,-1.3,64.21,14.65,104.65,-0.58,2.58,-1.04,-31.73,15.6,-51.56,0.31,-1.81,-4.45,25.56,17.64,-92.62,2
-0.52,0.54,2.15,-27.59,0.49,-133.63,-0.88,3.93,-0.14,-3.89,-27.85,103.72,0.91,-2.71,-5.8,167.16,-7.26,-228.85,2
-1.72,0.54,2.15,-1.71,11.23,-0.82,-1.18,7.38,1.36,42.0,-67.41,24.62,1.21,-6.76,-7.3,-8.13,-11.66,-221.04,2
-0.67,0.24,2.75,72.02,-13.19,492.35,-1.48,4.53,2.71,61.05,-32.74,56.35,-1.34,-11.56,-8.5,-7.15,-30.7,-160.49,2
0.38,-0.21,2.45,-10.99,11.23,31.9,-1.63,6.63,2.56,27.84,25.37,37.31,-2.69,-10.06,-6.85,8.47,4.45,55.81,2
-0.52,-0.66,2.9,17.82,-2.93,-38.41,-2.68,3.78,0.91,29.31,-14.67,-51.07,-4.64,-4.51,-3.25,62.18,-18.98,-38.91,2
0.53,0.24,0.8,52.98,2.44,-74.06,-0.88,2.43,1.36,9.78,46.85,-78.41,-3.29,-4.66,-3.7,37.77,3.48,108.55,2
1.58,-0.66,2.15,134.52,-112.31,-326.01,-0.58,1.08,-1.49,-314.44,-123.07,1017.23,-2.39,-1.06,-0.85,5.54,48.4,143.22,2
0.53,-2.01,0.8,22.21,-7.33,-2.77,2.12,-0.42,1.66,20.52,-11.25,12.9,-0.44,0.44,2.15,47.05,12.76,28.96,2
-0.22,-1.26,0.8,-2.69,-3.42,-7.16,2.87,0.18,3.01,-3.41,2.91,-6.15,3.16,1.05,2.3,-5.69,2.99,-2.29,2
-0.22,-1.26,1.1,-3.18,-7.81,1.62,2.12,0.33,3.16,-6.34,3.4,2.64,3.16,1.35,1.55,10.43,11.29,-5.22,2
0.98,-1.26,0.8,9.52,-3.91,-5.7,1.22,0.48,2.26,0.99,9.74,14.85,2.11,1.05,2.6,0.66,-1.4,10.4,2
1.88,-0.06,1.85,13.91,4.39,14.81,2.12,0.33,0.91,2.94,-2.95,-1.26,1.21,0.3,-0.25,18.24,-0.92,-21.33,2
0.83,0.09,-0.7,11.96,-12.21,-8.14,0.32,-0.27,0.61,-9.27,-1.0,16.8,0.46,-0.45,-1.0,0.17,-0.43,6.01,2
1.13,0.54,-1.0,14.4,-25.88,-15.95,0.02,0.48,-0.14,-12.2,-10.28,17.78,0.01,-0.9,0.05,7.01,-6.78,5.03,2
0.98,-1.26,-0.1,-35.4,16.6,-90.17,-0.88,1.23,1.06,-13.17,3.4,-41.79,-0.74,-0.9,0.5,10.91,1.04,-61.37,2
0.08,0.24,0.35,9.03,17.09,-49.65,0.32,1.23,-0.89,23.45,19.02,-60.35,0.46,0.3,-0.7,-22.78,22.03,61.18,2
-1.72,0.54,1.4,45.65,-32.72,37.27,-1.63,0.48,-0.89,29.8,-1.0,22.66,-0.89,-1.35,-0.4,-65.26,30.82,75.34,2
-1.27,-0.66,0.2,60.79,-17.09,-59.9,-0.58,-0.42,-0.29,8.31,-93.77,-65.72,0.91,1.35,1.25,-42.31,15.69,-62.35,2
-0.67,0.24,1.1,-60.31,99.12,-84.31,-0.28,0.33,0.16,8.31,-194.36,76.37,0.46,0.3,1.25,-96.02,-39.98,-51.61,2
-1.27,1.29,0.95,12.45,-23.44,-42.32,0.92,0.78,0.46,30.77,25.37,-151.65,-0.14,0.15,-0.1,453.78,-124.94,-106.78,2
-0.52,0.84,1.7,9.52,-1.47,-8.14,0.77,-0.57,0.61,6.85,5.35,-1.75,0.31,0.74,0.95,-1.29,-8.24,-5.22,2
-0.07,0.84,0.2,-5.13,-2.93,12.37,0.02,-0.27,1.06,1.96,1.93,-0.78,0.61,-0.31,0.35,8.47,-4.33,7.47,2
-0.52,0.09,0.5,6.59,4.88,-17.42,0.32,-1.02,-0.44,-1.45,-4.42,-3.7,-0.74,-0.9,1.25,3.1,3.48,-8.15,2
-0.52,0.54,0.5,-3.18,-0.98,1.62,0.02,0.18,-0.14,-2.43,2.91,-5.17,-0.29,-0.45,0.5,10.43,-1.89,8.94,2
0.08,1.44,-0.85,-2.2,-2.44,-3.75,0.32,-0.27,-0.44,-0.97,-6.37,-9.08,-0.14,0.44,-0.1,2.12,-3.85,6.01,2
-0.07,0.09,0.2,6.1,3.42,-1.31,-1.03,-0.72,0.16,10.75,9.25,-2.24,-0.74,0.3,-0.25,2.61,7.87,-1.32,2
0.38,-1.11,-0.7,4.64,-8.79,-7.16,0.62,0.78,0.91,0.01,3.88,14.36,0.46,0.3,2.0,13.84,0.06,-7.66,2
0.08,-0.06,-0.1,5.61,-3.91,1.62,-0.88,0.18,-0.14,-12.68,-5.39,3.62,-0.74,0.3,1.55,-0.32,14.22,4.06,2
0.83,-0.21,-0.25,0.24,2.93,-5.21,-0.58,-1.17,-0.29,-6.34,2.42,-6.15,0.01,-1.2,0.5,-2.27,2.99,8.45,2
-0.22,-0.51,0.8,-5.62,3.42,5.04,0.02,-0.57,1.36,2.45,7.3,4.6,-0.89,0.15,-0.85,0.17,-0.43,-3.76,2
-0.07,0.54,0.2,3.66,18.06,3.09,-1.63,0.18,0.31,9.29,7.79,2.15,1.06,0.44,-0.1,2.12,7.38,2.59,2
-0.97,1.29,-1.0,-0.74,-0.0,8.95,-0.88,0.18,0.61,0.5,-7.84,10.94,0.01,0.6,0.5,-4.71,-16.54,5.03,2
-0.52,0.09,-1.0,7.08,4.88,-6.19,-1.03,0.78,1.21,3.92,-5.88,-4.19,-0.89,0.15,0.35,6.03,0.06,3.57,2
-0.52,0.54,-0.7,13.91,0.49,-8.63,0.17,1.08,-0.29,13.68,-4.91,-6.15,-0.44,0.44,0.65,-4.71,0.55,2.59,2
0.38,2.04,-1.0,12.94,6.35,-4.72,0.32,-0.27,-0.44,-10.73,-6.86,-5.66,-0.74,-0.15,0.05,7.01,-8.24,-0.34,2
-0.97,-0.66,0.2,-5.13,-0.98,2.6,0.32,-1.02,0.31,-5.85,-5.39,-0.29,0.31,-0.31,0.35,6.52,-1.89,10.89,2
0.38,-0.21,0.5,-0.74,-1.95,-8.63,-0.28,-0.42,-0.74,0.99,-5.39,-3.7,-0.74,-0.45,0.05,2.12,-3.85,12.84,2
-0.07,0.09,0.5,-9.52,13.18,4.07,0.02,0.48,0.31,7.82,4.86,-1.26,-0.89,-1.06,1.7,5.05,-1.4,0.64,2
-0.22,1.14,0.35,12.45,2.44,-9.61,-0.58,1.08,-0.29,-9.75,2.91,-7.12,1.51,-0.31,0.65,-10.57,6.9,9.43,2
0.08,1.14,1.1,1.22,0.97,-2.77,-0.88,0.93,0.31,-1.45,1.44,1.18,-0.89,0.15,-0.4,5.05,-6.78,-6.2,2
-0.52,0.54,-0.7,-10.01,5.37,-5.7,-1.48,-0.42,0.46,0.01,-0.51,-2.24,0.01,-0.45,-1.75,12.38,11.78,6.01,2
-1.12,0.24,-0.1,9.03,-5.86,0.65,-0.43,0.18,0.31,1.48,-1.0,-9.08,0.31,1.2,0.95,11.89,3.97,15.77,2
-0.97,0.84,0.95,2.19,-1.95,0.16,0.02,0.18,-0.14,-9.27,-6.86,6.55,-0.14,0.74,-0.1,-2.76,-5.31,-6.2,2
-1.27,0.54,-0.25,-6.11,3.42,3.58,-0.43,-0.57,-0.14,-4.38,-5.39,-1.75,-0.29,0.3,1.25,13.36,5.92,-9.62,2
0.08,0.24,0.35,11.96,10.74,5.53,-1.18,-0.27,0.31,2.45,0.47,-3.22,0.31,0.74,0.65,-4.71,6.41,-0.34,2
-2.17,0.09,0.5,6.1,9.28,-3.26,0.77,0.18,-0.14,6.85,5.84,-6.63,0.61,0.44,0.65,7.98,2.01,-1.8,2
-0.22,0.69,0.8,-1.71,8.79,-0.33,0.77,0.48,-0.44,-4.38,3.88,-1.75,-1.04,-0.45,1.25,-9.59,-4.33,-13.52,2
-1.57,0.24,-0.1,-3.18,-3.91,-6.68,0.62,0.78,-0.29,3.43,-3.93,0.69,-0.14,0.74,0.35,-5.69,-8.24,10.89,2
0.08,0.24,0.35,9.03,6.83,-11.56,1.52,0.18,0.61,-10.73,1.44,5.08,0.91,0.3,0.8,1.15,-7.75,-2.29,2
-1.27,-0.21,0.5,9.03,12.69,-7.65,-0.28,-0.72,0.46,-6.34,-9.79,-6.15,0.91,-0.45,0.5,-6.18,-3.85,6.5,2
-0.07,-0.21,0.95,3.66,3.9,8.46,0.77,1.23,0.61,-3.41,-1.49,8.99,1.06,0.44,0.35,-4.71,-9.71,-7.66,2
-0.07,0.09,0.2,8.05,-0.98,4.07,-0.28,1.08,0.91,-1.94,-5.88,-5.17,0.01,0.3,0.5,4.57,-7.75,4.06,2
0.08,0.69,0.35,32.96,-7.81,9.44,0.02,0.18,-0.14,-1.45,-1.0,-4.19,0.46,0.3,0.05,0.66,5.43,-16.94,2
0.83,-1.11,0.95,-42.24,-18.07,-45.74,-0.28,0.78,1.96,-0.97,33.67,52.45,0.91,0.6,0.5,5.54,-6.29,75.83,2
3.08,-0.06,-1.3,49.56,107.42,-3.75,4.67,3.78,2.41,-88.37,12.67,-189.25,2.56,2.7,-0.85,85.13,-164.49,-434.42,2
4.28,0.24,0.8,20.26,21.97,173.5,13.22,8.88,6.46,58.61,6.32,5.57,3.01,1.95,-1.6,67.07,15.2,-46.24,2
3.23,0.54,0.95,-103.76,49.8,240.39,11.42,4.53,10.06,35.66,64.43,-57.9,3.46,2.7,0.35,-134.59,37.17,-45.26,2
1.13,-0.66,1.7,239.99,451.66,988.38,5.57,1.23,4.81,-449.7,653.3,-1694.13,5.11,1.65,1.25,228.69,52.79,1080.65,2
1.13,0.09,2.9,3.66,12.69,24.57,0.02,0.18,2.26,11.73,-2.46,-6.15,0.61,1.49,2.45,0.66,-5.31,4.54,2
-0.97,-0.21,1.7,18.8,-7.81,6.02,-1.63,-1.02,1.06,-14.15,7.3,-11.03,-1.64,1.2,0.65,-3.73,10.8,15.29,2
-0.22,0.24,-0.85,-86.67,5.86,-32.56,-3.28,-0.57,-1.94,80.09,-34.69,66.12,-1.49,0.3,0.8,-9.59,7.38,52.4,2
-2.62,0.54,0.5,35.89,-40.53,-14.49,-2.83,-0.57,-1.19,-102.53,103.49,-111.13,-1.94,-1.95,1.25,96.36,-124.45,-517.92,2
0.38,1.29,0.5,150.14,75.19,-82.36,-3.88,-1.17,-2.24,-121.08,15.11,-50.09,-1.94,-1.95,-0.25,-242.99,13.73,48.49,2
0.08,1.44,-0.85,-150.15,-43.95,-332.85,-0.88,1.68,-1.64,-71.77,236.79,34.87,-1.64,-0.6,0.65,87.57,-111.27,-205.91,2
-0.67,0.24,-0.4,20.75,-7.81,-9.61,-0.58,1.08,-1.79,-2.92,10.23,6.55,-0.44,0.15,-1.9,495.29,-305.6,-1521.33,2
-0.67,0.69,1.85,3.17,1.95,2.6,0.32,0.48,0.61,-6.82,1.93,0.2,-0.44,0.74,0.65,-6.18,-3.85,11.38,2
-0.07,0.54,-0.7,-1.22,1.46,1.14,0.62,-0.42,0.16,3.92,6.32,2.64,0.91,2.1,-0.25,-2.27,-13.12,-0.83,2
0.53,1.44,0.35,3.66,-4.4,-4.24,0.02,0.18,-1.19,-2.92,0.95,9.48,-0.74,-0.45,1.55,8.47,11.78,0.64,2
-0.97,0.54,1.4,18.31,6.83,1.14,-0.28,0.03,0.16,-3.41,-7.84,-4.19,0.91,-0.15,-0.7,8.47,5.92,-0.34,2
-0.67,0.69,-0.85,-4.64,2.93,17.74,-0.43,0.48,-0.44,6.85,-13.21,-9.56,0.01,0.3,-0.25,9.45,-5.8,-1.32,2
-0.07,1.29,0.2,2.19,0.49,-2.77,0.92,-0.42,-0.74,-0.97,2.91,-0.29,-1.34,0.74,-0.1,5.54,-4.33,-0.83,2
0.38,-0.21,-0.25,-6.11,9.28,9.44,-0.58,-1.17,-0.74,-12.68,-5.39,-6.15,0.31,0.15,0.65,4.08,-2.38,13.82,2
-1.27,0.09,0.5,2.19,-0.0,5.04,0.62,-0.42,-1.04,10.75,4.37,19.73,0.31,-1.06,0.65,1.64,-8.73,1.61,2
-2.17,0.54,0.2,4.15,7.32,7.97,0.77,0.93,-0.14,-0.48,-7.84,-1.26,0.46,-0.15,0.8,3.1,-1.89,1.61,2
-1.12,0.69,0.8,-6.6,1.95,8.95,-1.18,-2.07,1.06,-8.78,-4.42,-5.17,-0.14,1.2,-0.4,-7.64,-2.38,2.1,2
-0.52,0.09,-0.25,10.01,-1.95,-2.28,0.32,-0.57,0.61,-3.89,7.3,-11.03,-0.29,-0.15,-0.7,-1.29,-3.36,6.01,2
0.53,0.69,0.35,11.96,8.3,0.65,0.77,-0.57,1.36,2.94,-2.95,5.57,-0.29,0.3,0.8,4.08,7.87,3.08,2
-1.27,-0.66,0.2,18.31,0.97,10.9,-0.28,0.33,-0.74,3.92,10.72,-3.22,1.06,-1.06,0.65,-0.32,5.92,0.15,2
0.08,0.69,-0.4,10.49,-8.3,-7.16,0.32,-0.57,1.06,1.48,-1.0,-2.73,-1.34,0.44,0.35,-0.32,9.34,22.61,2
-0.97,1.29,-1.0,-0.74,-3.91,7.0,-0.28,1.08,-0.29,0.99,0.47,6.06,0.01,0.3,0.05,10.43,7.87,0.64,2
0.53,-0.51,1.55,-3.18,2.44,-0.33,-1.03,0.03,-0.29,9.29,-5.88,-0.29,0.61,0.74,-0.1,0.66,4.94,3.08,2
-0.22,0.24,-0.4,10.49,14.16,1.14,-2.08,0.48,0.31,-3.41,-1.0,0.69,-0.89,-0.31,1.4,-13.01,5.43,6.5,2
-0.07,0.54,0.5,-6.6,1.95,7.48,0.02,0.18,1.06,6.85,-6.86,-5.17,-0.74,-0.45,0.8,8.47,5.43,9.43,2
0.38,0.84,0.2,3.17,-5.86,-1.31,-1.48,0.03,0.46,5.87,-0.02,-7.12,0.61,-0.6,0.95,1.64,2.99,12.84,2
-0.97,0.09,-0.7,-3.67,3.42,1.62,0.62,0.03,0.91,10.75,14.14,2.15,-0.14,0.44,0.95,14.82,2.01,7.47,2
-1.12,0.24,0.35,1.22,-0.49,6.02,-0.28,-0.42,-0.74,18.57,-1.49,0.69,-0.14,0.44,0.35,0.17,3.48,2.1,2
0.83,0.09,-0.7,-5.62,2.44,-2.77,0.62,-0.42,0.91,-2.43,-0.51,3.13,0.61,-0.31,0.95,-0.8,3.48,11.38,2
-1.12,-1.26,1.1,24.65,8.79,9.44,-0.28,1.08,-1.04,14.66,-6.86,-0.78,0.31,-0.6,1.4,4.57,7.38,10.89,2
0.08,0.24,0.35,1.71,3.42,7.0,0.32,0.18,-0.14,17.1,-4.42,6.06,0.01,-0.15,0.8,-3.73,-1.4,-1.8,2
-1.57,0.69,0.35,19.77,1.95,1.14,-0.28,1.08,-0.29,8.31,-8.81,1.67,0.46,-0.45,1.25,3.59,-12.15,-2.78,2
-0.22,-0.06,-0.4,3.17,2.93,-6.68,-0.43,-1.02,0.61,-0.48,-0.51,4.11,-1.64,1.95,0.95,-5.69,-0.43,2.59,2
-1.12,1.14,0.35,9.03,10.25,-11.07,-0.43,0.18,1.06,5.87,-1.49,3.62,0.46,0.6,-0.25,-2.27,-0.92,5.03,2
-0.67,1.44,0.35,7.08,9.76,3.09,-0.88,1.23,0.31,1.96,-5.88,6.55,0.46,0.6,-0.7,6.52,2.5,6.01,2
-0.52,0.54,0.5,7.08,-1.47,-11.56,-0.58,0.33,0.46,-3.89,-4.91,4.6,-0.29,-0.45,0.05,-5.69,2.01,4.06,2
-0.07,-0.21,0.5,-1.22,-3.42,-2.28,-0.28,-0.42,-0.29,15.15,-14.67,-5.66,0.01,0.3,0.05,1.15,1.04,5.52,2
0.53,-0.06,0.35,-7.08,-5.37,-3.26,0.32,1.23,1.06,1.48,2.42,-2.24,-0.89,0.15,0.65,9.94,4.94,1.13,2
-0.97,0.54,0.2,-1.71,2.44,-7.16,0.32,0.48,-0.14,4.41,-5.88,4.6,0.61,0.44,-0.4,-0.8,3.97,3.08,2
-0.97,0.54,-0.25,-1.22,8.79,-0.82,0.62,1.53,-1.49,6.85,5.84,3.62,0.01,0.6,-0.7,15.31,-5.8,-3.27,2
-0.97,0.84,-2.95,29.05,0.97,12.85,1.22,0.93,-1.64,-6.34,-1.0,-18.35,-0.74,-1.2,-1.0,15.31,6.41,-8.15,2
0.08,0.24,-2.35,-194.1,42.48,85.12,0.02,0.18,-3.59,-19.52,130.35,-378.22,-1.04,-1.95,0.5,68.04,0.55,205.23,2
-0.67,1.89,-3.55,-8.06,-6.35,-2.77,0.62,0.78,-5.99,-10.24,11.7,-0.29,-2.24,-2.71,0.05,-28.64,1.53,-15.48,2
-0.97,1.59,-2.2,-9.04,10.25,79.75,-0.58,-1.17,-10.19,0.5,14.63,15.34,-1.04,-1.51,0.5,13.36,24.47,17.24,2
-3.37,3.54,-1.45,68.6,23.44,-12.05,-4.48,-3.57,-10.49,13.68,19.51,-78.41,-2.84,-2.1,2.15,133.96,-115.17,-26.22,2
-3.97,2.19,-0.1,20.75,-5.86,147.13,-7.78,-2.52,-7.34,61.53,-1.49,-68.16,-2.39,-3.15,3.2,95.39,21.54,2.59,2
-4.27,0.09,-0.7,125.24,-79.59,-840.17,-5.68,-2.52,-5.09,-57.61,-51.78,36.33,-2.39,-1.35,0.95,-24.24,-58.05,45.07,2
-1.57,-0.81,1.1,-4.64,14.16,29.94,-3.73,-2.52,-0.14,81.07,-89.38,-26.65,-1.04,-0.45,1.25,251.64,-25.33,125.64,2
-0.67,-1.26,0.35,8.54,-0.0,-0.33,-0.88,-0.57,2.26,0.01,-7.84,-1.75,-1.04,1.05,0.5,10.43,1.53,2.59,2
0.98,-2.01,0.8,4.64,4.39,-4.72,-0.28,-1.17,2.71,12.22,4.86,5.08,1.06,0.74,2.45,9.94,6.9,-1.8,2
1.43,-0.06,1.1,5.12,-1.95,-3.26,0.77,-0.57,1.06,2.45,3.88,-2.73,1.51,0.44,-0.85,0.17,0.06,7.96,2
0.98,-0.06,-0.4,-25.64,-0.49,7.0,1.22,-0.27,-0.89,3.92,-6.37,5.08,0.01,0.3,-1.45,-5.2,6.41,-5.71,2
-1.12,-1.26,-1.3,-39.8,-45.41,-61.85,-0.58,0.33,-2.99,-166.49,3.88,95.9,0.01,-0.45,-0.7,73.41,24.47,-51.61,2
-1.57,1.14,-1.3,-44.19,3.42,-33.04,0.32,-0.27,-4.34,-69.32,25.86,29.5,0.01,-1.2,-0.25,-121.41,-17.03,-129.73,2
-2.77,1.89,-0.85,-13.92,3.9,-57.46,-2.68,-0.42,-7.49,5.38,-16.62,-5.17,-1.94,-1.51,1.25,23.61,-13.12,17.73,2
-3.22,0.69,0.8,-1.22,4.39,47.52,-5.68,-3.27,-7.34,23.45,2.42,83.21,-2.24,-0.9,0.5,90.99,-28.26,56.79,2
-2.17,1.59,-0.7,-41.75,2.44,162.27,-4.03,-2.07,-4.64,89.37,43.92,-200.97,-1.34,-0.31,1.4,257.98,-48.28,-102.39,2
-1.72,0.84,-1.0,86.67,156.74,-873.86,-3.43,-2.37,-3.29,-358.88,138.16,103.72,-1.94,-1.2,2.0,-41.82,-104.43,122.22,2
-0.97,0.09,-1.0,-4.15,-1.95,57.78,-2.23,-1.17,-1.79,-5.85,-1.49,-11.52,-0.89,-1.81,0.65,173.02,13.73,361.48,2
-1.27,1.29,-0.25,2.68,7.32,-0.82,-0.88,-1.02,-1.19,-0.97,-1.49,-7.61,-2.09,0.15,0.35,5.05,13.73,4.54,2
-0.52,0.09,0.2,-0.25,9.28,-5.21,-0.28,-0.42,0.16,-1.45,2.42,-15.91,0.46,1.35,-0.7,-3.25,5.43,1.61,2
-0.07,0.09,0.2,4.15,-3.91,-1.79,-0.58,-0.42,-1.79,28.82,-7.84,-3.7,0.31,0.74,-0.1,2.61,4.45,0.64,2
0.98,0.69,-1.3,6.1,-9.28,5.04,0.17,0.33,0.46,-5.85,4.37,-1.75,-0.74,0.3,1.25,-12.52,-2.38,7.47,2
-2.02,-0.06,-0.4,5.12,-8.3,0.16,-0.58,-0.42,0.46,-2.92,-7.84,2.15,-0.29,-0.9,1.25,-2.27,6.41,6.01,2
0.08,1.44,0.35,3.17,11.23,-1.79,-0.43,-0.27,-0.44,-8.78,1.44,5.57,0.61,1.2,-0.1,2.61,-10.19,6.5,2
-0.97,-0.21,1.4,-2.69,4.39,4.07,-1.03,0.33,1.21,0.5,10.23,-10.54,0.01,1.05,1.55,5.54,1.04,1.13,2
0.53,-0.51,0.35,3.66,11.72,-12.05,-1.03,0.78,-0.74,6.36,1.44,6.06,0.01,-0.15,0.5,4.08,2.5,2.59,2
0.08,0.69,0.35,5.12,-4.88,2.6,-0.28,0.03,-0.29,3.92,-6.37,13.87,0.01,-0.15,0.05,-0.32,9.83,14.8,2
-1.12,-0.81,0.8,-3.18,6.35,-0.33,-0.28,0.03,0.16,0.5,4.37,3.13,-0.44,-0.31,-0.1,-5.2,-2.87,-10.1,2
-2.62,-0.21,0.5,-5.13,-0.49,-2.77,-0.43,-0.27,-0.89,-3.89,-6.86,-10.05,1.21,0.3,-1.75,2.12,9.34,-7.66,2
-0.67,0.69,-0.1,10.98,14.16,-8.63,0.02,1.68,-0.14,2.45,-0.02,-7.12,1.06,0.15,-0.1,-8.13,4.45,12.84,2
1.43,0.24,-0.1,18.8,5.86,0.65,-0.88,-0.27,-1.64,2.94,8.28,-0.29,-0.29,-0.45,0.05,6.03,-1.4,4.54,2
0.83,0.84,-0.25,-8.55,4.39,4.07,-0.43,0.48,-0.14,-3.41,1.44,-4.19,0.31,0.44,0.35,1.15,7.87,-13.52,2
-1.12,0.24,-0.1,8.54,10.25,-0.82,-0.43,0.93,-0.14,5.87,3.4,-7.12,-0.89,1.49,0.95,3.59,-7.26,5.03,2
-1.12,0.24,0.8,0.73,1.46,3.09,-0.43,0.18,1.36,3.43,10.72,-8.1,-1.04,0.3,0.5,-10.08,-3.36,10.89,2
-0.07,-0.21,-0.25,-0.25,-7.81,-9.12,0.32,-0.57,-0.14,-0.97,5.35,-2.24,0.01,-0.9,-0.25,5.54,6.9,13.33,2
-0.67,-0.81,-0.4,3.17,2.93,-6.68,-1.48,-0.42,0.16,2.94,-1.98,-6.63,0.91,0.6,1.25,11.89,6.41,-1.32,2
-0.67,-0.06,-1.3,-1.22,-0.0,0.16,-0.88,-1.32,0.61,-18.54,-11.25,-0.78,0.01,-0.15,0.05,5.05,5.92,-9.13,2
-1.57,-0.06,-0.1,-1.22,3.9,6.51,-1.03,0.03,-0.29,-2.43,6.32,0.69,0.61,0.44,-0.1,-6.66,1.53,11.87,2
-0.67,0.24,0.35,8.54,1.46,-2.77,-0.88,0.18,-1.19,-5.36,-4.42,10.46,-0.44,0.74,-0.1,-3.25,-8.24,-9.13,2
0.53,-0.06,-0.4,6.1,-8.79,-7.16,0.32,0.48,-0.44,2.94,12.67,1.18,-0.14,0.15,-0.1,7.5,-3.85,-1.32,2
0.08,0.24,0.35,4.64,10.74,-0.33,-1.18,-0.27,-0.44,5.87,8.77,4.6,-0.14,0.74,1.4,-12.04,-1.89,2.1,2
-1.27,0.84,0.5,10.49,0.97,-4.24,0.02,-0.27,-0.14,1.48,-8.32,-0.29,-0.89,0.15,0.35,-5.69,7.38,8.45,2
-0.22,0.24,-0.1,10.98,-12.7,-2.77,-1.93,-0.72,-1.49,19.54,3.4,-7.61,-2.09,0.74,0.95,7.5,10.31,0.15,2
-0.22,-0.51,1.1,10.98,-0.98,-11.07,0.77,-0.27,0.31,1.48,-1.98,13.87,-1.04,0.3,0.8,-1.78,-0.92,9.43,2
0.08,0.24,-0.1,10.01,3.9,2.11,-1.03,0.03,0.91,6.85,-9.79,-3.7,0.61,0.15,0.95,6.03,-0.43,0.15,2
-1.12,0.24,-0.85,7.08,-0.49,4.07,0.17,-0.72,-0.29,-10.24,-2.46,1.67,1.21,-0.15,-0.1,6.52,5.92,-0.83,2
-0.52,0.09,1.4,10.49,2.44,2.11,0.02,0.93,1.06,-1.94,-6.86,-1.26,0.31,0.44,0.95,5.05,1.53,1.61,2
-0.97,0.84,0.2,-13.43,2.93,2.6,-0.28,0.03,0.16,1.48,-11.74,0.69,0.01,0.6,0.8,-5.2,-5.8,-1.8,2
0.08,0.69,0.8,15.38,4.39,7.48,-0.88,-0.27,0.31,6.85,4.86,11.43,0.01,-0.45,-0.25,13.84,6.9,18.22,2
-0.67,-0.06,-0.1,31.49,-17.58,5.53,-0.88,-1.02,-0.14,-8.78,14.14,-9.08,-1.34,-1.06,-0.1,-2.76,9.83,13.33,2
0.08,1.89,0.35,-149.17,-58.11,-77.97,-0.58,-1.92,-1.49,85.46,-49.83,197.47,-1.49,-0.45,0.5,-50.12,48.4,173.0,2
-0.97,2.04,-0.25,42.23,1.95,-110.19,-2.68,-0.72,-2.54,42.98,-25.9,-54.0,-2.09,-1.81,-0.1,-21.31,16.17,55.33,2
0.08,0.69,0.35,-9.52,27.83,12.85,-0.43,1.23,-2.39,70.32,5.84,70.51,-2.39,-1.35,-1.15,-22.78,9.34,97.32,2
1.13,1.59,-1.0,256.59,144.53,840.49,2.87,1.23,0.61,-22.45,-2.46,73.44,-0.14,-1.81,-0.85,-54.03,7.38,145.17,2
0.83,1.29,1.7,9.52,-9.28,2.11,2.57,1.83,-0.74,-6.82,9.74,27.06,1.21,0.3,-1.0,-606.76,26.92,71.93,2
-0.97,-1.11,3.35,9.03,-1.47,13.83,-2.53,0.93,2.56,8.8,-3.44,-8.59,-1.49,1.65,0.8,-3.25,-5.8,22.12,2
-3.82,0.84,2.9,-22.71,-8.79,-35.97,-1.03,-0.72,0.91,3.43,12.18,-24.21,-0.89,1.2,0.95,-3.73,6.9,28.96,2
-2.92,0.84,-0.7,104.73,78.12,505.53,-2.53,-1.32,-0.89,68.37,-25.41,-154.1,-0.74,0.3,0.8,-65.26,-52.19,-104.34,2
-2.77,0.69,-1.3,145.26,25.88,-123.86,-0.88,-2.07,-0.14,140.64,-209.01,157.92,-2.24,0.3,2.0,-66.23,69.4,219.39,2
-1.72,0.54,-2.2,140.87,111.33,585.12,0.02,-0.27,-0.44,3.43,-111.84,87.6,-0.89,-1.06,0.65,57.79,0.06,71.44,2
0.08,1.14,-2.05,-98.39,-41.02,73.89,2.42,-1.77,-0.14,7.82,-40.06,210.65,-0.14,-0.6,-0.85,32.4,-50.23,6.5,2
-0.97,0.09,0.2,7.57,7.32,5.53,0.62,0.03,-1.04,-32.7,97.15,11.43,-0.29,-0.15,0.05,564.62,-487.73,-1789.4,2
-1.12,0.69,-0.4,0.24,4.88,4.07,-1.18,0.48,0.31,0.5,-6.86,20.71,-0.74,1.05,-0.25,-2.27,3.48,-5.71,2
-0.52,0.54,0.2,-3.67,4.39,-14.98,0.02,0.93,0.31,14.66,6.81,-3.7,-0.29,-0.15,-0.25,-0.8,8.85,-3.27,2
-0.52,1.59,-0.7,5.12,2.44,-5.7,-0.28,0.03,-1.04,1.48,-2.46,-1.75,-0.29,-0.15,-0.7,8.96,0.06,-9.13,2
-1.27,0.84,-0.7,4.15,-6.35,-0.33,0.62,0.33,0.46,0.01,2.91,8.99,-0.29,-0.15,0.5,9.45,8.85,-0.83,2
-0.52,0.84,-0.25,17.33,-1.47,-10.09,0.02,0.48,0.61,4.41,-4.91,-9.08,0.31,0.15,-1.9,0.17,-4.33,-3.27,2
0.08,-0.06,-0.1,-4.15,4.88,-2.28,-0.58,1.83,0.46,5.87,0.47,0.2,-0.74,-0.45,0.8,9.45,-2.38,-3.27,2
0.38,0.09,-0.7,8.54,4.39,-0.33,0.32,0.18,1.36,6.85,-4.42,11.43,2.41,-0.15,0.05,7.5,-8.24,10.4,2
0.53,-0.51,0.35,-1.22,-0.0,9.44,-1.48,0.33,0.46,-6.82,-1.49,-7.61,0.61,0.15,-0.1,-3.73,0.06,-4.73,2
-0.67,1.14,-0.85,2.68,-1.95,-12.54,-0.43,-0.57,-0.89,1.48,-5.88,2.15,-0.29,-1.2,-0.25,8.47,-9.22,1.13,2
-0.52,-0.21,0.95,13.91,-0.0,5.04,0.92,0.03,0.16,-4.38,1.44,-5.17,1.21,-0.45,-0.7,4.08,14.71,1.61,2
-0.52,-0.66,-0.7,7.57,4.88,5.04,-0.88,0.48,1.06,3.92,2.42,2.15,0.01,-1.2,0.5,6.03,-3.36,19.19,2
-1.12,-0.51,0.35,7.08,1.46,-1.79,-0.28,1.08,-0.29,-1.45,2.42,-0.78,0.01,1.35,0.05,5.54,10.31,-7.17,2
-1.12,0.24,0.8,-5.13,9.76,2.11,-0.88,-0.27,-0.44,12.22,-4.91,5.08,0.46,0.6,-1.0,3.59,0.55,8.45,2
-0.22,-0.51,0.35,-6.6,-2.93,-8.14,0.17,0.78,-1.04,8.31,3.88,-0.78,0.01,-1.51,0.05,-14.97,2.99,4.54,2
-1.57,-0.06,0.8,-4.64,1.95,1.62,-0.28,0.33,-0.29,0.5,0.47,0.69,0.01,-0.45,-0.25,-5.2,2.99,-7.17,2
-0.97,0.84,0.5,7.08,10.25,-4.72,-0.88,0.93,-0.14,0.5,2.91,-8.1,0.01,-0.15,-0.25,-0.8,5.43,6.5,2
-0.52,1.59,0.2,2.19,0.49,-3.26,-0.58,-0.42,1.21,-1.94,-11.74,16.8,-0.89,0.44,0.65,-7.64,2.5,-7.17,2
-1.27,0.09,-0.7,-4.64,7.32,-10.09,-0.58,-0.42,1.21,-5.85,10.72,-0.78,0.31,-0.31,-0.1,-2.76,-6.78,-5.22,2
-1.57,-1.26,0.8,2.68,3.9,1.14,-1.03,-0.42,-0.29,7.34,-14.18,-7.61,0.01,0.3,1.25,10.43,4.94,4.06,2
-0.67,-1.26,0.35,8.05,1.46,-6.68,-0.28,0.03,0.16,2.94,10.23,3.13,0.01,0.6,-1.0,-12.04,-3.36,-9.62,2
-1.12,0.24,-0.1,3.17,-3.91,-3.26,-1.48,1.08,0.91,15.15,1.93,0.69,-0.14,0.44,1.4,-6.66,2.99,-4.24,2
-1.27,0.84,0.2,2.19,5.37,-4.24,0.02,0.48,-0.14,-1.45,-7.84,9.97,-0.29,-0.45,0.8,-8.13,7.87,7.47,2
-0.52,0.54,0.5,-3.18,-4.4,-4.72,-1.03,-0.42,0.16,-3.89,-2.46,-7.12,0.31,-0.6,1.4,3.1,4.94,2.1,2
-1.57,1.14,0.35,-0.74,3.9,-5.7,-0.28,-0.72,0.16,7.34,1.93,9.97,-0.89,-0.6,0.35,20.68,-9.22,13.33,2
-0.22,-0.06,0.35,3.66,14.16,-9.12,-1.48,0.03,0.91,16.12,-0.02,0.2,0.01,-0.15,0.5,-2.27,-11.17,3.57,2
-0.07,-0.66,-0.25,7.57,-4.88,-11.56,-0.28,0.33,0.16,-3.41,-0.51,0.2,0.46,-0.9,0.05,7.98,2.01,3.08,2
-0.67,0.69,2.3,-7.57,-6.35,13.34,-0.58,0.33,1.21,19.05,5.35,-5.66,0.91,-0.9,-0.25,-0.8,1.04,1.13,2
-0.97,-0.66,-0.25,-1.71,-11.23,3.09,-0.88,0.48,0.61,4.41,-0.51,-0.29,0.31,-0.6,0.95,6.52,3.48,2.59,2
-0.07,-0.21,0.2,0.73,1.95,13.34,0.02,0.48,-0.14,15.64,-9.3,0.2,-0.29,0.6,0.05,6.03,6.9,4.54,2
-0.22,1.14,1.55,6.59,-4.88,-2.77,-0.58,0.03,1.21,14.17,-5.39,3.13,0.01,-0.9,-1.45,5.05,4.94,10.89,2
-0.67,-0.06,-0.1,4.15,10.25,0.16,0.17,1.08,0.16,1.48,-2.95,-6.15,0.01,-0.45,0.8,-4.22,2.99,4.54,2
-0.07,0.09,0.95,-1.71,2.44,-1.79,0.77,-0.27,0.61,3.92,5.35,11.92,1.06,-0.6,-0.1,2.12,-0.92,6.01,2
-1.72,0.84,0.2,8.54,2.44,5.04,0.02,0.18,0.61,15.64,2.42,-8.1,-1.64,0.15,0.95,2.61,3.97,9.43,2
-1.27,0.09,0.5,12.94,-8.3,-0.82,0.02,-1.02,-0.44,-1.45,-5.39,7.53,0.01,1.05,0.05,0.17,-2.87,14.31,2
0.38,1.29,-0.7,-7.57,12.69,-3.26,0.17,1.08,1.21,-1.45,-1.0,-5.66,0.31,-0.31,-0.85,-4.71,3.97,-1.32,2
0.38,-0.21,-0.7,4.64,-2.44,-3.26,-0.28,1.53,1.21,4.41,12.67,-6.63,0.91,1.05,0.5,-0.8,-2.38,13.33,2
-0.67,1.14,0.8,2.68,-3.91,5.53,-0.28,-0.42,1.96,-4.38,-2.46,-5.17,-0.89,-1.06,0.65,8.96,6.41,-1.32,2
-3.37,-1.11,0.2,-7.08,3.42,17.74,-0.58,0.33,0.16,-7.8,5.35,-3.7,0.01,0.3,0.5,11.89,-2.38,4.06,2
-0.07,-1.11,-0.25,17.33,18.55,42.64,-0.88,0.18,-0.89,9.29,-19.07,-9.56,-0.29,-0.9,0.5,19.7,-17.52,-14.01,2
-2.32,-0.51,-2.05,-105.72,-38.09,145.67,-1.93,-0.42,-1.04,-135.73,107.4,-24.21,-0.29,0.3,-1.0,90.5,77.21,229.15,2
1.88,-1.26,-7.9,36.37,-71.78,-113.12,2.12,-0.72,-1.49,27.84,-27.85,-301.07,0.46,1.35,-0.7,190.6,-103.46,-562.35,2
2.63,-1.26,-13.0,-52.49,-9.28,0.16,0.77,-1.02,-1.64,-54.68,79.57,-28.61,1.66,-1.2,0.05,-30.1,-58.53,-115.08,2
0.08,-1.26,-19.3,2.68,20.02,-19.86,1.37,-2.67,0.91,26.38,10.23,34.87,0.46,0.3,2.0,-72.09,13.73,-49.66,2
-4.27,-1.41,-19.9,-33.94,35.64,11.39,1.82,-3.87,3.46,16.12,-10.76,29.99,-0.29,1.05,3.05,9.45,23.99,54.84,2
-7.57,-0.66,-13.6,93.99,19.53,-71.13,1.97,-3.27,1.36,-28.8,25.37,-0.29,1.21,1.65,1.25,-89.67,20.57,21.63,2
-6.97,-0.51,-9.1,67.14,54.69,0.65,1.82,-3.12,2.71,20.52,-39.57,124.71,-0.14,0.44,0.95,107.59,-62.44,-117.04,2
-4.87,1.14,-2.8,100.83,-34.67,-40.37,0.62,-1.77,1.06,76.18,94.7,-474.41,0.61,1.95,2.9,-434.89,-12.15,98.78,2
-2.32,-0.06,0.35,3.66,9.76,0.16,-0.43,-1.02,2.26,2.45,-1.98,7.04,0.46,1.35,0.5,-0.32,-2.87,16.75,2
-0.67,0.24,2.3,-3.18,-3.42,-8.63,0.02,-0.27,1.81,2.45,-5.88,-1.26,-0.14,0.74,0.95,4.08,-6.78,-4.73,2
2.63,1.14,2.3,9.52,-1.47,-9.12,-0.43,1.98,3.31,0.5,-4.91,2.15,1.51,1.2,0.95,10.91,1.53,5.52,2
1.88,0.69,2.3,-3.67,-4.88,-12.54,0.92,1.08,1.96,7.82,-1.49,9.97,0.46,1.65,0.05,-2.76,6.41,10.4,2
-0.22,0.24,2.3,10.01,-3.42,-10.09,-0.28,2.28,2.41,10.27,-1.0,13.87,1.51,1.49,-0.1,-0.32,-2.87,-15.96,2
0.38,0.54,1.7,43.21,3.9,-17.91,-0.28,2.28,-0.74,-20.01,15.11,-32.51,0.61,1.2,0.95,1.64,1.04,-0.83,2
-0.97,0.09,1.7,-43.7,159.18,-203.94,0.02,1.23,2.26,-48.82,-33.23,-201.46,1.51,-0.31,0.65,71.95,-75.62,99.76,2
0.53,-0.06,0.35,-2.69,4.39,-14.0,-0.28,1.53,3.46,39.56,-40.55,30.96,1.66,0.3,-0.7,23.61,-2.87,13.33,2
0.08,-1.26,2.3,23.19,11.72,-7.65,-0.43,1.23,3.31,19.54,-15.16,-10.54,1.21,0.6,-0.7,-44.26,4.45,55.81,2
-0.22,-1.71,2.3,23.19,-21.0,2.6,-0.58,1.83,4.36,55.68,-51.29,-392.38,0.31,0.74,1.7,-33.52,17.64,11.87,2
-0.22,-1.71,2.75,87.64,24.9,-46.23,-1.18,1.23,2.56,2.94,20.97,-162.4,1.51,-0.31,0.65,85.62,-27.77,22.12,2
-0.67,-1.26,1.85,-169.19,-64.45,-183.43,-0.58,0.33,1.66,118.66,-63.01,37.31,-0.74,1.05,0.8,-109.2,-72.21,19.19,2
-0.52,0.84,0.5,6.59,10.74,10.41,-0.58,-0.42,0.46,61.05,153.79,-234.66,-0.44,0.74,0.35,121.27,-31.19,-70.65,2
-1.12,0.69,0.8,7.08,6.83,14.81,-1.03,0.33,-0.74,-0.97,4.86,-9.56,0.01,-0.45,0.05,2.61,2.5,6.01,2
-1.12,-1.26,0.35,-4.64,-0.98,7.0,0.17,0.78,0.91,5.87,-7.84,-5.66,-0.44,-0.31,0.35,7.5,11.78,-0.34,2
-1.27,0.54,0.95,4.15,-3.42,-5.7,-0.88,-0.57,-0.44,4.41,-11.74,0.69,-0.44,-0.6,0.65,9.94,14.71,8.45,2
0.53,0.69,-0.1,3.17,0.49,-1.79,0.02,-0.27,2.26,0.01,-0.02,-4.19,0.01,-0.45,-1.45,-0.32,9.34,6.5,2
-0.67,-0.51,0.35,-9.52,-7.33,-1.79,0.02,0.18,0.31,-6.34,8.77,-10.05,0.31,0.15,-0.1,17.75,14.71,3.08,2
-0.07,0.09,-0.25,-10.5,0.97,1.62,-0.43,0.48,-0.14,-3.41,-5.88,2.15,0.61,0.44,-0.4,-2.27,-5.8,11.87,2
-1.27,0.54,0.5,8.54,0.49,6.02,-0.43,-1.02,0.31,15.64,3.88,9.48,-0.74,-0.15,0.05,-8.13,5.43,18.22,2
0.83,1.29,0.95,4.15,-1.95,-14.49,0.32,-0.27,-0.44,4.41,2.42,-1.26,0.46,-0.15,0.05,-6.66,-0.43,-1.32,2
-1.72,0.09,0.5,10.01,3.9,6.51,-1.93,0.33,-0.29,-6.34,-9.3,-12.49,-0.29,0.6,-0.25,-1.78,3.48,9.43,2
-0.97,0.54,-0.25,1.71,-3.42,-0.82,-1.18,-0.57,-0.14,-1.45,-10.28,7.04,-0.29,-0.15,0.5,-4.22,-3.85,12.36,2
0.38,0.54,1.4,14.89,-3.42,-1.79,-0.28,0.78,0.16,-1.94,-6.86,-1.75,-1.64,-0.6,-0.1,-2.27,6.41,0.15,2
-0.07,0.54,0.2,-5.13,5.86,-4.72,-0.28,-1.17,0.16,-0.97,0.95,8.01,-0.74,-0.9,1.55,-4.71,3.97,13.82,2
0.08,-0.51,-0.1,5.61,-4.4,-5.21,0.17,0.03,1.21,12.71,0.95,4.6,1.21,-0.9,0.05,-7.15,0.06,3.08,2
-1.72,0.54,0.2,16.84,4.88,-3.26,-0.28,-0.27,1.06,10.27,4.37,0.69,0.91,-0.15,0.5,0.17,2.01,-4.24,2
-1.72,-0.21,0.2,-0.74,-3.91,-7.16,-0.43,0.48,0.61,11.73,-0.02,2.64,0.31,-1.06,0.65,3.1,0.06,6.5,2
-0.67,-0.06,0.35,13.91,0.49,12.37,0.17,-1.47,-0.74,3.43,-0.02,8.01,0.46,-0.9,-0.7,10.91,2.5,10.89,2
0.08,0.69,-0.1,-2.2,5.37,-0.33,0.62,-0.42,0.16,11.24,14.63,-0.29,0.91,0.3,0.8,4.57,0.55,6.99,2
-0.22,-0.51,1.55,-4.15,-0.49,0.65,-0.88,0.18,-0.14,-2.43,-7.84,-0.29,-0.29,0.3,0.05,3.59,14.22,4.06,2
-0.22,1.14,0.35,17.82,6.35,7.0,0.32,0.18,0.31,16.12,-12.23,-1.75,-0.14,0.74,0.65,3.1,-7.75,10.89,2
-1.12,0.69,1.55,9.03,-7.81,-1.79,0.02,-1.32,-1.19,-3.41,7.3,-1.75,1.21,0.6,-0.25,-3.25,3.97,8.45,2
0.53,0.69,1.1,5.12,11.72,-10.09,0.32,0.48,-0.44,0.5,2.42,-14.45,-0.44,0.44,-0.1,-8.62,4.45,-6.69,2
-0.67,0.69,-0.4,10.49,0.97,14.32,-1.03,1.08,-0.29,6.36,13.65,-7.12,0.91,-1.2,-0.25,-11.06,7.87,9.92,2
-1.12,1.14,0.35,2.68,-1.47,0.65,0.62,1.53,0.46,-1.45,2.42,-8.1,-0.74,1.05,0.05,12.87,-7.75,-0.83,2
-0.67,0.24,-0.1,-7.57,8.79,-2.28,0.62,1.53,0.46,1.48,5.35,5.08,-0.29,1.05,-1.0,-6.18,-2.38,6.99,2
-0.97,-0.21,0.5,2.68,-4.4,1.14,-1.48,1.08,0.46,10.75,-15.65,4.11,-1.49,-0.15,0.8,9.45,3.48,5.52,2
-0.67,0.69,0.8,1.71,-2.44,1.62,0.32,-0.57,-0.14,-1.45,3.4,-4.68,-0.89,0.15,0.95,-17.41,4.45,4.54,2
-3.22,-0.06,-0.85,103.76,-36.13,203.77,-1.18,-1.02,-0.89,-29.29,58.57,-122.85,-0.14,-0.6,0.35,1.64,7.87,28.47,2
-4.87,-0.06,-1.3,1.22,10.74,-4.24,0.62,-1.47,-4.94,-12.68,2.42,16.31,-2.39,-1.35,-0.1,21.17,20.57,29.45,2
-5.47,2.49,-1.45,-4.64,5.86,-106.29,0.02,-4.02,-3.89,4.89,-1.0,95.9,-2.09,-1.35,2.45,-34.5,-24.35,-45.26,2
-7.12,0.84,0.2,-57.38,-13.19,67.05,1.97,-4.77,-2.84,7.82,7.3,6.06,-0.74,0.3,2.3,-105.79,38.63,60.7,2
-6.97,0.69,1.85,89.6,-46.39,-69.66,-0.58,-4.17,-2.54,36.63,-45.92,41.71,-2.24,0.3,2.6,2.12,-8.24,0.15,2
-4.72,1.29,2.45,205.32,6.83,-1212.24,-2.83,-3.27,1.06,-12.2,-4.91,213.09,-1.04,1.35,2.3,-330.39,132.87,388.33,2
-1.27,-0.66,2.45,8.05,-5.37,-21.81,-2.08,-1.02,2.56,7.82,-8.81,-2.24,-1.04,1.35,2.0,8.96,-5.31,-1.8,2
0.38,-0.21,1.7,-3.67,3.42,-6.19,-0.88,-1.32,3.31,11.24,-0.51,8.99,1.21,1.05,1.55,-5.69,-5.8,-2.29,2
0.53,-0.51,0.8,1.71,-0.0,3.58,0.92,0.78,1.96,1.48,-0.51,-5.66,1.21,1.65,0.05,7.98,5.92,1.61,2
0.08,-0.51,1.55,11.96,-4.4,5.53,-0.28,1.08,1.21,6.85,-0.51,-18.35,1.06,1.49,-0.1,-0.8,-3.36,-3.76,2
-0.52,0.54,1.7,1.71,7.81,2.6,-0.28,0.03,1.21,-21.96,-5.39,-9.08,0.31,1.2,-1.15,3.1,4.45,-14.5,2
-0.52,0.54,1.4,69.58,-122.56,2.6,1.37,0.78,1.96,19.54,-71.31,97.37,-0.14,1.95,0.95,136.89,22.52,-9.13,2
-1.72,0.09,0.2,-100.83,-22.46,-73.08,2.87,-1.77,5.56,21.98,13.16,-44.23,-0.14,1.49,-1.6,-80.88,21.06,-83.83,2
-0.97,0.09,2.15,-114.51,11.23,178.38,5.87,-4.17,9.61,-50.28,49.78,223.83,0.31,2.7,0.35,150.07,99.18,200.34,2
-2.17,0.54,0.5,-96.44,152.34,251.14,4.22,-3.42,5.86,-83.48,11.21,345.9,-1.04,2.4,1.25,16.28,-62.93,-21.82,2
-1.57,1.14,0.35,-348.88,286.13,988.38,0.02,-1.77,3.76,-12.68,30.25,-247.85,0.61,1.95,1.4,163.26,-310.97,-663.42,2
-0.67,0.69,-0.85,5.61,10.25,-2.77,1.82,-0.42,0.46,10.75,2.42,0.69,0.61,-0.6,-0.1,11.4,7.38,15.77,2
-0.97,0.54,-0.25,6.59,7.32,8.46,-0.43,-1.32,0.61,-9.27,-0.02,-17.38,-0.44,-0.31,0.65,-1.29,2.01,6.01,2
-0.52,1.29,0.95,-1.71,-2.93,-0.82,-0.28,-0.42,0.46,14.17,2.91,-4.19,-0.74,-0.15,-0.25,11.4,2.01,8.45,2
-1.57,0.24,-0.4,9.03,-3.91,2.6,-0.58,1.08,0.16,11.73,-14.67,-9.08,0.01,-0.9,0.5,0.17,0.55,13.82,2
0.83,-0.21,0.2,2.68,-10.74,-0.33,-0.28,-0.42,-0.29,1.48,-13.69,-1.75,1.51,-1.35,0.95,2.61,15.2,3.57,2
0.53,0.24,0.35,-3.18,-7.33,2.11,-0.43,0.93,-0.14,3.92,-15.65,-7.12,-1.04,-0.45,-0.25,7.01,8.36,6.01,2
-2.02,-0.51,0.35,-3.18,14.65,-8.14,-0.43,-0.57,-0.89,10.75,0.47,-2.73,-0.89,0.15,-0.1,-2.27,-2.87,7.96,2
0.38,0.09,0.5,0.24,3.9,4.07,0.02,0.18,-0.14,0.99,6.32,2.15,-0.44,0.44,0.95,10.43,1.53,4.06,2
0.83,0.09,0.95,-1.71,-12.21,-9.61,-0.28,0.33,0.91,-1.45,-5.39,3.62,0.31,1.2,-0.4,-3.25,1.04,22.12,2
-0.67,0.24,-0.4,-1.22,-2.44,11.39,0.77,0.48,1.06,-0.48,2.91,-4.68,-0.89,0.74,0.35,6.52,2.5,10.89,2
0.98,-0.06,0.35,9.52,3.9,-5.7,-1.93,1.08,0.46,-5.36,-5.39,2.64,-1.49,0.3,0.8,-9.11,6.41,5.52,2
-0.07,0.09,0.95,10.98,8.79,-6.19,0.32,0.48,-0.14,17.1,-1.49,0.69,-0.74,-0.9,0.5,4.08,-0.92,5.03,2
-1.57,0.24,0.35,0.24,2.44,-8.14,0.77,-0.57,0.31,2.94,4.86,5.57,0.46,-0.15,-0.25,-15.45,14.71,0.64,2
-0.52,0.54,-0.25,9.03,-5.86,-5.7,-1.63,-0.57,1.36,-1.94,-1.0,-2.73,-0.14,-0.31,-0.85,-4.22,1.53,13.33,2
-1.72,-0.21,-0.25,-8.55,-9.28,5.53,-0.58,0.03,0.16,3.43,-0.02,-0.29,-0.14,-1.06,-0.1,-5.69,0.55,12.84,2
0.38,0.84,0.2,3.17,-5.86,5.04,-0.88,-1.32,0.31,5.38,-1.49,-13.96,0.01,0.6,0.05,3.59,-8.24,14.8,2
-0.52,0.09,0.5,11.47,10.74,2.6,-1.48,0.78,-0.74,4.41,-3.44,-11.52,0.01,1.05,0.05,7.01,3.97,10.89,2
-1.72,0.54,-0.25,12.45,-4.88,3.09,-0.58,-0.72,-0.29,-0.97,-0.02,-0.29,0.46,-0.15,-1.75,8.47,-4.82,7.47,2
-1.27,0.09,0.2,6.1,9.76,-4.72,0.02,0.18,-1.64,6.36,0.47,-3.7,-0.14,-0.31,0.95,4.57,1.53,2.59,2
-0.97,-0.66,0.5,3.17,-2.93,3.09,0.17,-0.72,0.16,-0.48,-8.32,-4.68,0.01,-0.15,-1.0,7.98,9.83,-2.78,2
-0.97,0.09,1.4,13.42,1.46,-8.14,0.02,0.93,1.06,12.22,-5.39,-1.75,0.46,1.65,-0.25,-13.01,7.38,6.99,2
0.38,0.84,0.35,9.52,-3.42,0.65,-1.48,-0.42,0.46,9.78,-2.95,-5.66,-1.34,1.2,0.95,-6.18,-1.4,-6.69,2
-0.52,0.09,0.5,-6.6,-7.81,12.85,-1.03,-0.72,-0.74,8.31,-7.84,3.13,-0.89,0.74,1.4,3.59,2.5,10.89,2
-0.52,0.09,-0.7,6.59,-2.44,4.55,-0.43,0.48,0.31,9.78,-1.98,-12.49,-0.44,-1.81,0.35,0.66,1.04,6.5,2
-1.27,-0.21,1.7,3.66,1.95,-7.16,-0.28,0.33,-1.04,-0.48,-3.93,6.55,-1.04,0.3,-0.25,-1.29,18.61,4.06,2
-0.97,-1.11,0.2,14.89,-1.47,4.55,0.32,-0.27,0.31,-0.48,17.07,2.64,0.01,-0.9,0.5,-9.11,-11.17,-2.78,2
0.53,0.24,-0.1,-2.2,5.86,-4.72,0.92,-1.17,-0.74,1.96,-1.98,2.15,0.46,-0.9,-0.25,-1.78,-0.43,4.54,2
-0.07,0.54,-0.25,-0.25,-0.49,10.41,-0.43,1.23,1.06,-2.43,5.84,2.64,1.06,0.44,0.35,-1.29,-3.36,9.43,2
-0.97,-0.66,0.95,5.12,-8.3,3.58,0.02,0.48,-0.89,-6.34,-1.98,-14.94,1.21,0.3,0.05,-0.8,7.38,0.64,2
-0.52,0.54,0.2,-0.74,3.9,-9.12,0.92,-0.42,0.91,0.01,-10.28,-23.72,0.46,0.6,0.5,1.64,9.34,9.92,2
-0.22,0.24,-0.4,-4.15,-2.44,-4.72,0.02,-0.27,-0.14,8.8,-3.44,-6.63,-1.34,-0.31,0.65,3.59,4.45,8.94,2
-1.27,-0.66,1.4,-6.11,1.95,4.07,0.92,-1.17,0.16,6.36,-0.02,-2.73,1.51,1.2,-0.4,5.54,-0.43,3.08,2
-0.97,0.84,0.2,8.05,-5.37,5.04,0.77,0.18,-0.89,15.64,-4.91,-0.78,0.31,0.44,0.65,5.54,-4.82,10.4,2
-0.97,-0.66,0.95,3.17,-0.49,-7.16,-1.03,0.03,-0.29,-8.29,1.44,-3.7,0.46,-0.45,0.5,0.17,-8.24,11.87,2
-0.67,-0.06,-0.1,-1.71,6.83,4.07,-0.43,0.18,1.06,-5.85,9.25,11.92,0.46,-0.45,1.25,6.03,3.48,4.06,2
-0.07,0.09,0.2,14.4,-5.37,0.65,-0.88,-0.27,0.31,-11.71,9.25,-11.52,0.61,0.74,0.65,1.15,-6.78,8.45,2
0.53,-0.06,-0.4,-17.34,-7.81,0.16,0.92,1.08,0.46,9.29,3.88,-7.61,1.66,-0.15,-0.25,-8.62,2.99,30.42,2
1.88,0.69,0.35,91.55,74.71,259.44,1.22,0.93,0.31,39.07,-40.06,-91.11,0.31,0.44,-0.4,-39.38,-40.96,-100.44,2
1.13,0.54,0.5,31.0,-1.47,140.78,1.37,1.53,-2.54,22.96,-3.44,147.17,2.26,0.15,-0.85,212.57,23.5,-72.12,2
2.48,1.29,0.2,19.77,-5.37,-60.88,2.57,-1.17,-4.04,31.26,-15.65,-30.07,2.41,1.05,0.05,18.24,-2.38,3.57,2
1.88,1.89,-0.1,-20.27,-9.77,-41.34,5.42,-0.72,-2.99,-39.54,31.72,6.55,1.81,1.49,0.65,-71.61,-12.64,0.64,2
2.78,2.04,1.4,4.64,10.25,7.97,6.02,0.18,-1.64,-34.66,46.85,49.03,2.26,0.44,-0.1,-15.94,-33.14,-80.91,2
2.48,0.54,0.5,61.76,40.04,343.42,5.42,1.83,-1.04,19.05,-90.84,183.31,3.16,-0.9,1.25,12.87,4.94,144.19,2
1.88,1.44,1.55,82.27,-100.59,-1430.02,1.97,0.48,4.06,228.04,-339.87,1017.23,2.56,0.44,1.4,78.3,-82.46,-771.82,2
0.53,0.24,2.3,9.52,6.83,-4.24,-0.43,0.48,3.76,5.38,-0.02,-12.49,0.61,1.95,1.4,-2.27,15.2,11.38,2
-0.97,-0.66,1.4,11.96,-2.93,2.6,-0.88,-1.02,3.31,3.92,6.32,0.2,1.06,1.49,2.15,-3.25,-4.33,3.57,2
-3.82,-0.66,0.95,7.08,6.35,0.16,-1.93,-1.17,1.96,12.22,-7.84,6.06,-2.09,0.15,0.95,0.17,12.27,5.03,2
-2.62,-0.21,0.2,8.54,0.97,-20.35,-3.13,-1.92,-0.29,0.01,3.88,-6.15,0.01,-0.45,0.5,6.03,22.03,21.63,2
-3.37,1.59,-1.0,-54.93,2.44,120.76,-2.23,-1.17,-1.19,78.62,-64.48,-10.05,-0.89,-0.31,0.95,-38.4,-18.01,-89.21,2
-4.72,2.04,-0.25,59.81,4.39,73.4,-1.63,-2.52,-0.89,10.75,21.95,114.46,-0.44,-1.35,0.35,36.79,-113.71,-2.78,2
-1.72,1.29,-0.25,54.93,-44.92,55.34,-1.03,-1.47,-1.49,-18.06,-25.41,-50.58,-1.04,0.6,0.5,-15.94,-23.38,-58.44,2
0.08,1.44,-2.35,25.63,15.62,135.9,-0.43,-1.32,-1.19,2.45,14.63,13.87,-0.74,-0.9,-1.75,-13.5,4.45,-1.32,2
-1.27,2.49,-0.25,-60.31,24.41,125.16,1.97,0.18,-1.64,-20.01,27.81,1.67,-0.29,-0.15,1.25,-16.43,-27.77,-71.14,2
0.08,0.24,-0.85,-123.29,290.04,988.38,0.92,-0.42,-1.49,-74.7,293.43,-612.1,-0.29,-0.45,-0.25,564.14,-96.13,250.64,2
-0.22,0.24,-0.4,7.08,-6.35,-5.7,0.32,-0.27,-0.89,1.96,14.14,-19.33,0.91,-0.9,-1.45,-9.59,1.53,8.94,2
-0.07,0.84,-0.7,0.24,-0.0,7.97,-0.43,0.48,-0.14,2.94,-0.02,2.15,0.46,0.3,1.25,-2.27,11.78,6.99,2
0.53,0.69,-0.1,-4.64,5.86,0.65,-1.63,-0.27,-0.44,8.31,-0.02,-0.78,-0.44,1.2,-1.15,3.59,-10.68,3.57,2
-0.07,0.54,-0.7,-2.2,-2.44,-6.68,0.32,-0.27,-0.14,3.92,-2.46,-3.22,-1.04,-0.45,-0.25,7.98,3.97,0.64,2
-0.22,-0.51,-0.1,11.47,-10.74,3.58,-1.48,1.08,0.16,4.41,2.42,3.62,-0.89,0.74,-0.4,-17.41,0.06,8.45,2
0.08,0.24,1.1,4.15,-0.0,0.16,-0.58,0.78,-0.29,0.5,7.3,-2.73,1.06,0.44,-1.15,4.57,10.31,8.94,2
-1.27,1.59,0.5,12.45,6.83,1.62,0.62,0.33,0.16,9.29,7.79,-1.26,-0.14,0.15,-0.4,5.05,2.01,7.47,2
-0.07,0.54,0.2,0.73,-16.11,3.58,-1.48,0.33,0.91,4.41,9.25,-2.73,-0.14,1.2,-0.85,4.08,-1.89,3.57,2
-1.12,0.69,0.35,6.59,9.76,7.97,-1.03,-0.72,-0.29,3.92,0.95,-0.78,0.31,0.15,0.35,2.12,1.53,6.99,2
-2.17,0.54,0.5,-0.25,-3.91,-3.26,-1.03,-0.42,0.91,7.82,6.81,-2.73,1.06,-0.31,-0.4,11.89,-0.43,13.82,2
-0.67,-0.06,-0.4,0.73,-1.47,-13.51,0.17,-0.42,0.46,12.71,-5.39,-3.22,0.61,-0.6,0.35,-2.27,9.34,12.84,2
0.08,-0.06,-1.3,1.71,-9.28,-4.72,-0.58,0.03,-0.74,-8.78,3.4,-5.66,-0.74,0.6,0.05,1.15,7.87,-3.27,2
-1.12,1.44,-0.4,3.66,-5.86,-9.12,-1.63,-0.57,-0.14,-0.97,1.93,-10.54,-0.44,0.74,-0.1,-0.8,16.17,10.89,2
-1.27,1.29,0.2,9.52,0.97,5.53,-0.43,-0.27,-0.44,-0.48,18.53,3.62,0.61,-0.31,0.65,-3.73,15.69,11.38,2
-2.02,-0.06,-0.4,-6.6,-5.37,3.09,-1.18,0.93,-0.89,-7.8,7.3,-5.17,-1.34,0.44,0.35,5.05,7.87,-5.22,2
-0.97,0.54,0.95,15.87,6.35,-7.65,0.32,-0.57,1.06,2.94,2.91,-9.56,1.81,-0.6,-0.4,0.66,3.48,3.57,2
-1.12,0.24,0.35,5.12,8.79,3.09,-0.43,0.18,1.06,-4.87,-1.98,5.08,-0.74,-0.45,-0.7,3.1,11.29,-0.83,2
-0.22,-0.06,-1.3,1.22,-1.47,-4.72,-0.28,0.03,0.91,-0.97,-8.32,4.11,-0.44,0.74,-0.1,7.01,-2.87,6.5,2
-0.52,0.54,0.2,-10.99,3.42,7.48,-0.28,1.83,-0.74,10.75,-13.21,2.64,0.31,0.15,0.95,3.1,6.9,13.82,2
-0.07,0.84,-0.7,0.24,10.74,3.09,0.02,-0.57,0.61,-1.94,-0.51,-14.45,1.06,0.44,0.35,5.54,13.73,6.01,2
-1.72,0.54,-0.25,4.64,3.9,-7.16,0.62,0.33,0.16,2.94,-7.35,-5.17,-0.44,0.44,0.65,7.5,11.29,2.59,2
-0.67,-0.06,-0.1,16.84,12.21,0.65,0.17,0.03,0.16,9.78,-2.46,-4.19,-0.44,0.74,-0.4,8.47,6.9,4.54,2
0.08,0.24,0.35,2.19,11.23,13.34,0.17,-0.72,-1.04,0.99,-11.25,-7.12,-0.14,-0.6,-0.85,-8.62,5.92,0.15,2
-0.22,0.69,-1.3,10.01,-5.86,7.0,-0.28,0.33,0.91,-2.43,2.42,6.06,-0.74,-0.45,0.05,1.15,17.15,9.92,2
-0.52,0.54,-0.25,10.49,1.46,3.58,-1.18,-0.27,1.06,-1.94,-3.44,-5.17,0.31,0.15,0.35,1.15,15.2,5.52,2
-0.97,-0.21,-0.25,8.54,-1.47,-9.61,0.02,0.93,-0.14,1.48,2.91,-0.78,0.61,0.15,-0.1,6.52,0.55,-2.78,2
-0.52,0.09,-0.7,15.87,1.46,-1.79,-0.88,0.18,1.06,4.41,10.23,3.13,-0.89,-0.6,0.35,1.64,3.48,9.92,2
-1.27,1.29,-0.25,7.08,2.44,-16.93,-0.28,0.33,1.66,6.85,2.42,-1.75,-0.44,-0.31,0.35,-8.13,-2.87,-1.32,2
-0.22,0.69,0.8,-1.71,0.97,-0.33,1.97,0.93,-0.44,-0.97,7.3,-3.22,0.61,0.15,0.35,10.91,-3.36,10.89,2
-0.67,-0.06,1.1,0.73,10.25,-1.31,-0.43,-0.27,0.31,4.41,-16.62,-1.26,0.31,-0.31,-0.4,-3.25,-1.89,-0.34,2
0.35,1.94,-1.28,-5.66,-4.09,4.99,0.23,1.39,-0.66,2.77,16.61,14.82,0.19,-0.39,-0.03,12.21,1.79,-19.11,2
0.8,0.29,-0.38,0.2,4.7,23.05,0.83,0.04,-0.06,-4.06,-4.39,12.38,-0.26,1.56,0.57,0.98,7.16,-1.05,2
-1.0,-0.46,-2.03,-24.22,5.19,41.61,1.28,0.04,-0.51,5.21,5.38,33.86,-0.11,0.96,-1.08,5.86,0.81,-4.95,2
1.55,0.74,-2.33,25.1,-1.16,33.31,0.08,-0.41,-0.81,-6.99,-8.78,-11.06,1.99,0.06,0.57,136.72,-62.18,-246.17,2
2.75,-0.46,-3.23,37.79,-70.98,-428.12,0.38,-0.71,-0.81,-27.5,16.61,-36.45,-0.71,-2.49,0.27,-46.38,136.55,536.55,2
4.85,1.94,-5.48,-144.33,10.07,-26.75,1.88,0.64,-1.41,125.33,88.87,-3.73,1.24,-0.69,0.87,-94.72,141.44,336.84,2
3.2,2.24,-6.38,-36.42,31.07,-44.82,3.23,-0.41,-2.31,-11.39,-2.44,85.13,1.84,-1.59,-0.78,10.75,-12.86,75.12,2
4.85,2.99,-7.88,-51.07,18.86,51.86,2.93,1.09,-1.56,64.79,101.08,-39.38,0.79,0.06,1.62,-40.04,22.78,23.85,2
4.1,2.69,-9.53,19.73,22.28,-6.73,3.23,-0.41,-0.06,-3.57,9.28,69.02,0.79,0.51,0.27,-168.45,50.13,111.26,2
1.4,1.64,-6.53,-8.1,22.77,-0.87,0.68,-1.01,-0.66,-0.64,-6.34,-64.28,0.19,-0.39,1.92,23.93,-29.46,-94.31,2
0.95,0.14,-4.58,1.66,-3.11,-32.12,0.08,-1.91,-2.76,8.14,5.38,24.1,1.09,0.36,1.47,62.5,-2.61,-77.22,2
-3.25,0.14,-3.83,-100.39,-1.16,164.66,-0.52,-1.01,-1.86,-38.73,14.17,51.93,0.49,-0.69,1.62,30.77,-32.39,-190.01,2
-0.55,-1.66,-0.08,27.05,-88.07,-1254.78,-0.37,-0.71,0.99,137.05,-255.36,1024.53,-0.56,0.96,0.72,832.52,-327.8,-1469.8,2
-0.7,-0.31,2.17,2.64,7.14,-1.36,-0.82,0.34,1.89,-2.6,-0.97,3.59,1.39,0.66,1.17,-4.88,5.21,-13.25,2
0.8,0.29,3.52,7.03,-9.95,-11.13,0.38,1.09,2.19,1.8,-2.44,-21.31,1.99,1.56,0.27,-7.81,-1.63,22.39,2
1.55,0.29,1.87,9.47,-3.11,1.08,0.23,0.94,1.29,4.24,-0.97,-43.28,1.24,1.26,0.87,14.16,6.67,-14.23,2
0.95,1.34,1.27,25.59,-7.99,-28.22,1.28,1.54,1.89,8.14,19.54,-155.1,0.64,0.96,0.42,16.61,-9.93,-15.21,2
0.05,-0.31,0.22,24.61,-36.8,-162.98,0.23,1.39,1.59,69.18,-95.7,424.49,2.44,1.26,0.87,-103.02,58.43,226.98,2
-0.55,-0.91,2.77,-119.43,18.86,265.24,-1.12,1.09,2.64,-25.55,122.56,-39.38,0.64,1.41,0.42,-102.05,157.55,246.51,2
-1.15,-2.26,2.17,-13.96,30.09,-8.68,-1.57,1.84,2.64,6.68,-32.22,5.54,1.84,1.71,-0.03,65.43,-24.09,-74.78,2
0.35,-1.96,2.77,67.09,26.18,36.24,-2.77,1.09,4.89,53.07,-129.39,32.4,2.29,2.16,-0.03,-173.82,4.72,-10.33,2
0.05,-2.26,2.17,90.04,61.34,-139.06,-4.87,1.09,5.19,-3.09,-61.03,170.58,0.04,1.56,0.57,-54.2,11.55,-34.74,2
0.5,-1.51,2.47,-16.89,-63.66,-48.72,-3.07,1.39,5.04,26.7,24.42,-45.73,0.19,1.41,1.92,-209.47,42.32,43.39,2
0.05,-0.31,1.72,-223.44,-111.51,25.49,-3.07,1.39,3.99,-329.26,223.64,-41.82,1.09,2.46,-0.03,-47.36,63.8,120.05,2
0.35,-0.91,1.57,194.53,55.48,207.62,0.83,0.79,1.44,201.02,-69.82,-63.79,-0.71,0.06,1.32,10.75,89.19,-459.54,2
0.95,0.14,-0.23,-2.73,-10.44,10.85,-0.37,1.09,0.99,-4.55,6.84,0.17,0.19,-0.84,0.42,106.45,22.78,105.89,2
-0.55,-0.01,-0.08,-0.78,2.75,8.4,1.28,1.54,0.24,3.26,-0.97,3.59,1.09,0.66,-0.03,1.47,5.21,7.74,2
0.35,-0.46,0.82,-2.73,8.12,-4.78,0.83,1.09,-0.51,1.8,4.89,-2.76,0.79,0.51,0.57,5.38,-5.54,13.6,2
-0.1,-1.21,-0.38,2.15,3.24,4.5,-0.22,0.64,0.84,-2.6,10.26,-1.29,0.19,-0.39,0.72,4.89,-0.16,6.76,2
0.05,0.14,0.22,5.08,-5.07,3.03,-0.82,0.04,0.69,2.29,-1.95,4.57,-0.11,-0.09,-0.33,-7.81,-3.58,-0.56,2
0.05,0.14,0.97,-2.24,-2.14,-9.66,0.08,-0.41,-1.26,4.73,0.49,2.13,0.49,-0.69,1.32,-13.18,-1.63,9.69,2
-0.7,0.44,-0.23,1.66,-4.09,4.99,0.23,-0.26,-0.21,1.31,2.45,-2.27,0.64,0.36,0.72,-9.27,-2.12,4.32,2
-0.55,1.49,0.82,16.31,-4.09,-5.76,-0.22,-0.26,-0.66,-6.5,1.47,9.45,-0.26,0.81,0.27,-4.88,1.79,12.14,2
-2.2,0.74,0.82,-9.57,1.77,3.03,0.38,0.04,-0.06,-12.36,-0.97,-3.25,-0.56,0.36,0.72,0.0,-8.47,3.35,2
-0.25,0.44,0.97,16.8,6.65,-8.68,0.68,0.19,-0.21,-0.64,-6.83,5.06,-0.11,0.36,0.42,-4.88,3.25,13.11,2
0.35,-0.01,-0.83,0.2,-5.55,6.45,-0.52,0.64,0.54,3.75,12.21,-13.5,0.04,-0.69,1.62,1.96,6.18,-2.02,2
0.95,0.44,0.22,6.06,-6.04,2.55,-0.82,0.04,0.69,-11.87,5.38,-4.22,0.19,-0.09,0.42,0.0,-1.63,7.74,2
-1.0,-0.46,0.37,3.13,0.31,12.31,0.08,0.04,-0.81,-5.53,-9.76,1.15,0.79,-0.69,-0.93,0.49,5.69,-6.91,2
-0.55,0.74,-2.33,1.66,2.75,-7.71,0.98,1.39,0.09,-1.62,-6.34,-9.59,-0.11,-0.09,-0.33,-6.34,-0.65,-5.93,2
0.35,0.74,0.37,-1.27,1.28,9.38,1.28,-0.41,-0.06,6.19,8.8,-4.71,0.04,-0.24,0.57,0.98,7.65,9.69,2
-1.0,-0.01,-0.08,-1.27,3.24,-0.87,-0.52,-0.56,-0.21,-7.97,2.45,-1.29,0.19,0.36,-0.03,-3.9,-11.39,8.72,2
0.35,0.29,-2.78,-1.76,-2.14,6.94,-0.22,0.64,-0.66,7.17,-12.2,9.45,-0.56,-0.84,1.17,2.93,6.18,-2.02,2
-1.3,0.29,-0.83,5.57,27.16,-6.24,0.08,0.04,-0.81,-3.57,-5.85,-9.1,0.64,0.36,-0.33,1.96,9.6,3.83,2
-1.15,0.89,-0.23,-5.17,5.19,-4.29,-0.22,0.19,-0.66,1.31,0.01,-1.29,-0.26,0.51,-0.48,3.42,-3.58,6.76,2
-0.25,-0.61,-0.68,8.5,-7.51,4.99,-0.97,0.64,0.54,15.47,6.35,-1.29,-0.56,0.66,0.42,-16.11,1.79,-1.54,2
-0.1,0.29,1.12,-9.08,-5.07,4.99,0.38,0.04,-0.06,8.63,0.98,7.5,-0.71,-0.24,-0.93,-13.18,10.58,11.16,2
1.4,0.14,-0.23,-4.69,-4.09,4.01,0.38,0.34,-0.51,13.03,0.01,-0.8,-0.11,-0.39,0.42,-10.74,9.11,4.81,2
-0.7,0.14,0.22,0.69,12.51,1.08,-0.82,-0.41,0.24,2.29,0.49,0.66,1.69,0.51,0.57,-13.67,-4.07,6.76,2
0.35,-0.01,-2.03,-3.22,9.1,10.85,0.68,1.39,0.84,12.54,0.98,-3.25,-0.26,-0.24,0.57,10.75,0.81,6.28,2
-1.3,1.04,-1.28,7.52,0.31,-5.27,0.83,0.04,0.69,17.42,0.98,7.5,-0.56,-0.09,1.17,-2.44,16.93,-9.84,2
0.05,0.89,0.52,-11.03,8.12,35.75,-0.37,1.84,-0.51,-17.25,9.77,21.66,0.49,0.81,-0.93,13.68,4.72,-4.47,2
-2.2,1.49,1.87,-38.38,33.51,70.91,0.68,0.19,1.29,-31.41,32.23,16.77,0.19,0.96,0.42,-3.9,15.95,79.52,2
-6.1,1.34,4.87,-100.39,81.85,75.3,-2.32,-0.41,0.69,12.54,-13.18,-34.98,0.19,1.41,-0.33,195.8,-141.77,-342.36,2
-10.6,-0.01,12.97,-37.4,26.18,-3.31,-3.82,0.64,2.79,-25.06,-11.22,204.76,-0.56,0.96,0.72,-46.38,43.29,116.14,2
-13.3,-4.21,24.22,-14.45,6.65,-55.56,-5.62,1.54,2.64,27.19,6.35,53.4,0.79,0.81,1.62,20.51,13.02,14.58,2
-9.85,-4.36,26.77,-16.89,-1.65,-8.2,-7.87,1.69,3.99,-17.73,-18.06,-16.92,0.19,0.96,0.72,-51.27,25.71,99.54,2
-2.8,-1.51,19.87,-6.64,-6.53,-22.85,-5.77,1.69,4.29,13.03,-20.5,-54.51,1.09,1.71,0.72,-96.68,-28.0,-30.34,2
-2.65,-0.91,12.52,-91.11,17.88,358.01,-4.57,0.64,5.49,-1.13,10.26,-136.55,-0.11,1.71,1.92,7.33,-54.85,-64.04,2
-1.6,0.14,8.02,29.98,44.74,-806.54,-3.67,0.79,4.44,179.04,-233.88,1024.53,0.19,0.96,1.17,656.25,-186.69,-1001.54,2
0.05,-0.31,4.12,15.82,-2.14,-5.76,-2.17,2.14,4.74,-2.6,0.01,-21.31,0.79,2.31,0.87,-2.44,7.65,-0.07,2
0.8,-0.01,3.07,-12.5,1.77,19.15,-0.52,1.69,2.04,9.61,3.91,-3.73,1.99,2.01,0.87,6.35,-1.63,-12.77,2
0.95,0.14,0.52,-17.38,14.95,48.44,-0.97,1.39,2.04,-12.36,19.05,22.63,1.09,1.41,1.47,14.65,10.58,16.04,2
1.85,-1.81,0.22,-64.26,13.49,-7.22,0.83,1.84,0.99,-16.76,42.0,18.73,0.19,2.16,1.17,-14.64,23.76,99.05,2
1.85,0.14,0.52,55.86,-76.84,156.35,-2.02,-0.41,0.99,25.23,-149.9,-9.59,1.24,2.61,0.27,337.41,-162.76,-593.82,2
-0.55,-0.91,-0.08,-46.68,21.79,76.28,-3.22,0.04,0.99,-70.96,44.93,70.49,1.69,0.81,-0.48,-201.66,40.85,118.09,2
-0.25,-1.06,0.97,81.74,-53.89,116.8,-4.42,0.34,1.89,-163.73,68.37,293.63,-0.26,2.01,0.87,-170.89,-2.61,150.32,2
-0.1,-0.91,0.82,29.98,-124.69,-252.83,-2.77,-0.41,3.39,15.47,53.72,-220.04,0.79,2.31,1.62,-285.15,107.75,607.84,2
0.8,0.74,0.37,-455.37,-82.21,-22.36,-2.17,-0.26,1.29,-1062.66,357.92,77.32,-0.71,1.56,0.87,-1061.52,-64.13,-371.65,2
0.05,-0.31,0.52,940.14,-14.34,-144.43,-0.22,0.64,0.54,616.05,-422.36,1024.53,-0.26,1.26,0.57,722.17,120.44,-412.18,2
-0.1,-0.01,-0.83,-7.13,5.19,-0.87,0.68,-1.01,0.54,-3.09,0.98,0.66,-0.11,0.36,-0.03,5.86,-9.44,0.42,2
-0.55,1.49,1.12,-0.78,1.77,12.8,-0.22,-0.26,0.54,1.8,2.45,-14.48,0.04,0.06,0.87,-18.06,3.74,12.62,2
-0.25,-0.31,0.52,-11.52,-3.11,-4.78,-0.52,0.94,-0.66,-7.48,-7.32,3.59,1.24,0.51,0.57,6.84,-7.98,-7.4,2
0.8,0.29,-0.38,8.5,-2.14,-4.29,-1.12,-0.41,-0.51,-12.85,-7.81,-3.25,-0.71,0.81,-0.18,-0.97,-1.14,-7.4,2
-0.7,-0.31,-0.23,0.2,8.61,6.94,0.08,0.34,-0.06,-6.99,3.42,-9.59,1.39,0.36,-0.33,-5.37,0.32,1.88,2
-0.1,0.74,-0.08,18.26,-0.67,0.59,-0.37,0.04,-0.51,1.31,11.24,7.01,0.19,-0.09,0.42,-12.69,-5.05,-4.95,2
-0.25,0.89,-0.23,2.15,8.12,-4.78,-0.82,-0.41,0.69,-2.11,4.89,-2.27,1.24,0.81,-0.48,6.35,-0.65,-1.54,2
-1.15,-0.31,0.22,1.17,1.28,2.55,-0.37,1.09,-0.06,-7.48,-2.92,5.06,0.49,0.06,-0.18,-9.27,9.6,9.21,2
-0.1,1.04,-0.83,1.17,-1.65,9.38,-0.52,0.19,-0.66,5.21,-4.88,11.4,0.64,-0.84,-0.03,0.98,-7.0,6.76,2
-1.75,-0.46,0.37,11.43,3.24,-3.31,0.08,-1.16,-1.56,-1.62,2.94,2.61,0.19,0.96,0.72,9.28,-2.61,16.04,2
0.35,0.29,-0.38,-1.27,0.31,0.1,-0.22,-0.26,0.09,-3.09,4.89,15.31,-0.11,0.66,0.42,0.0,7.16,0.42,2
-0.7,1.34,-0.23,1.66,6.65,-3.31,0.08,0.34,0.69,13.03,-7.32,-5.2,0.04,1.26,0.27,-5.86,1.3,-0.56,2
0.35,-0.91,-0.38,-6.64,3.24,-0.87,0.68,0.19,0.09,1.8,-4.88,-10.08,0.79,0.51,0.27,-7.81,-0.65,-4.95,2
-0.1,0.29,-0.08,8.99,-8.97,9.87,-1.12,0.79,0.24,-6.02,7.82,-9.59,-0.71,0.81,0.27,-11.71,-2.61,3.35,2
-1.3,0.74,1.12,-3.22,13.49,1.57,-0.52,0.19,-1.11,-4.06,-10.74,0.17,0.79,-0.69,0.87,-5.86,-3.58,5.79,2
2.45,0.74,-0.38,-7.62,0.31,-10.15,-0.82,0.34,0.69,-6.02,0.98,-7.64,-0.26,0.81,0.57,-0.97,4.23,1.39,2
-0.1,0.29,-0.38,8.01,-1.16,-7.22,-1.12,1.09,-1.56,4.24,-0.48,5.06,0.19,-0.39,1.47,-4.39,2.77,0.91,2
-0.25,0.14,0.97,-0.78,2.26,-0.87,-0.22,0.94,0.84,-2.11,0.49,0.66,-0.86,0.96,-0.78,-11.23,-4.56,-4.47,2
0.35,1.49,-0.38,-15.92,-13.85,-2.83,0.23,0.94,-0.66,-7.97,-9.27,8.96,-0.11,-0.39,0.42,5.38,2.77,1.88,2
0.05,-1.06,0.22,-10.55,2.26,3.52,-0.52,0.94,0.09,-6.5,11.73,-5.2,1.09,0.66,-0.03,-5.37,1.79,5.79,2
0.35,-0.01,0.37,-2.24,-6.04,-3.31,-0.52,0.64,0.09,-14.32,13.19,-4.71,0.49,0.81,0.57,10.75,10.58,-1.54,2
0.35,1.49,-0.08,-9.57,4.21,10.36,0.08,0.34,0.99,2.77,3.42,5.54,1.09,-0.09,-0.33,-10.74,10.58,6.76,2
-0.7,0.89,-0.98,-2.24,7.14,-3.8,-0.37,0.04,0.99,-2.6,3.91,-5.69,-0.11,0.66,0.42,-12.2,4.72,11.16,2
0.5,0.14,1.27,-1.27,-6.04,-2.83,-0.37,0.34,-0.06,-1.13,16.61,-6.17,0.19,0.36,1.17,-3.41,4.23,3.35,2
-1.0,0.29,0.82,-4.2,-10.92,-0.87,-0.22,0.94,0.54,21.33,-5.36,-7.15,1.24,-0.24,0.27,0.49,5.21,0.42,2
-0.1,0.29,-0.83,1.17,-0.67,-3.8,0.23,0.19,0.09,-2.6,0.01,-2.27,0.49,-0.69,2.07,-2.44,1.3,2.86,2
-0.55,-0.46,-0.83,-3.22,13.49,0.59,-1.57,1.09,-0.06,6.19,-5.85,-2.76,0.04,-0.99,0.57,-8.3,10.09,2.86,2
-0.25,0.14,0.52,5.57,-4.58,-7.22,-1.42,0.19,-0.66,12.05,-0.48,3.1,-0.11,0.66,0.72,2.45,9.6,4.81,2
-0.25,0.44,0.97,0.69,-5.55,14.26,-0.52,0.19,-0.66,10.1,13.19,8.96,-0.26,1.56,-0.18,12.21,6.67,-2.51,2
0.5,1.34,-0.23,-0.78,-8.97,14.75,-0.37,1.09,0.69,12.54,14.65,-6.66,1.24,-0.24,-0.18,-9.27,2.77,5.3,2
0.05,0.89,-1.43,-5.66,-3.6,-1.36,1.28,0.79,0.24,1.8,2.94,-7.15,-0.11,0.96,1.17,-3.41,12.04,5.79,2
-0.55,-0.01,-0.38,-14.45,-4.58,-3.8,-1.12,1.54,0.24,5.7,-4.88,-3.73,0.04,1.26,-0.48,-12.2,6.67,1.88,2
0.95,1.34,0.22,1.17,4.7,4.5,-0.82,0.79,-0.06,9.61,1.47,5.54,-0.56,-0.84,0.42,7.33,4.23,-13.25,2
0.5,1.64,-0.23,-12.99,7.63,10.36,-0.37,0.04,0.24,2.77,8.31,3.59,0.49,1.56,-0.48,-7.32,6.67,-5.93,2
0.05,0.89,-0.68,14.36,8.12,8.89,-0.52,0.19,-0.21,2.77,2.45,7.01,-0.71,-0.24,0.87,1.47,0.32,1.88,2
0.05,0.89,0.22,2.64,9.1,15.24,-1.12,-0.71,-1.56,-8.95,15.14,-16.92,0.19,0.36,-0.03,-0.97,-3.58,12.14,2
0.5,1.64,0.22,11.43,7.63,20.61,-0.37,0.34,-0.81,-10.41,8.31,-1.29,-1.31,-0.39,1.92,-10.74,-3.58,18.48,2
-0.1,0.29,1.12,-8.1,23.26,124.13,-2.32,0.34,1.44,-27.99,67.39,-132.15,0.04,0.51,0.87,-13.67,-4.07,-56.71,2
-1.75,-0.01,0.82,-38.87,34.97,136.82,-3.82,-1.01,0.54,-92.93,-18.06,191.58,-2.06,0.36,2.22,-20.5,88.7,90.26,2
-1.0,-0.91,-0.83,-29.59,3.72,-46.77,-6.67,-0.56,0.09,-30.92,39.56,104.66,-1.76,0.66,-0.33,-81.05,80.4,190.36,2
-0.25,-1.51,1.27,-109.67,34.97,-284.08,-6.07,-0.71,-2.01,-27.99,-21.97,190.6,-4.31,1.26,-0.93,14.65,24.74,81.96,2
0.5,-2.26,0.22,202.35,188.29,985.88,-3.22,-0.71,-1.56,36.95,1.96,-14.96,-3.71,0.66,-1.08,-62.01,-5.05,220.63,2
-0.7,-2.56,1.27,99.32,294.74,535.75,-4.27,-0.56,0.54,346.52,-661.61,1024.53,-1.16,3.36,-0.18,762.7,-298.5,-1290.6,2
-2.05,-2.26,1.27,-2.24,2.75,3.52,-2.32,-0.71,4.44,9.12,9.77,-4.22,-0.71,3.81,2.07,-6.83,0.81,-15.7,2
-1.75,-0.01,2.32,6.54,3.72,3.52,-1.72,-2.06,2.79,-5.53,6.35,-0.32,-0.11,4.26,3.27,-6.34,13.02,13.11,2
-2.35,0.89,2.17,8.01,-3.11,-2.83,-2.17,-0.56,0.84,-32.87,1.96,4.08,-0.26,1.26,2.07,-3.9,6.18,-3.0,2
-1.6,1.34,-0.68,-6.64,13.0,19.15,-2.17,-1.76,-0.66,26.21,-20.99,-39.87,-1.76,0.66,-0.03,-35.15,-2.12,0.91,2
-1.6,0.44,0.22,15.82,-13.37,-0.38,-0.97,0.19,-0.66,-108.55,-122.55,12.87,-0.56,-0.84,-0.78,-8.79,-12.37,-65.5,2
-0.1,2.69,-0.83,242.38,83.31,82.62,-0.97,0.64,-1.41,13.52,-24.9,-60.37,-0.26,0.51,0.57,379.4,-62.66,-232.49,2
-0.55,0.29,-0.38,-75.49,36.44,-124.9,0.98,0.64,-1.11,-10.41,31.74,633.47,-0.56,0.66,-0.03,23.44,-31.9,38.5,2
1.4,1.34,-0.98,128.61,-169.62,-243.06,1.43,0.19,-0.66,-48.01,-49.31,560.23,0.04,0.51,-1.68,-27.34,-6.02,187.43,2
-0.55,1.94,-1.28,-2.73,50.6,52.35,-0.52,0.19,-0.66,-285.8,797.86,-1659.98,-0.71,1.26,-0.48,-1569.82,1326.5,1078.97,2
0.5,0.14,0.52,0.2,-3.11,-9.17,0.08,0.79,-0.06,-6.02,12.21,-16.92,-0.26,0.81,0.27,-19.53,5.21,18.48,2
0.05,0.89,-0.98,-12.01,-7.51,2.06,-0.37,0.79,-0.51,3.26,1.96,0.66,-0.86,0.96,-0.33,-9.76,4.72,-12.28,2
0.95,0.89,-0.98,0.69,-12.88,-18.94,-0.22,1.39,-0.66,-11.87,1.47,7.99,0.19,0.96,0.72,-3.41,-4.07,-3.49,2
-0.1,1.49,-0.38,-16.4,0.31,-1.85,-0.82,0.34,0.24,1.31,2.94,16.77,-1.16,0.51,0.57,-13.18,-0.65,8.72,2
-0.25,2.39,0.22,3.13,-1.16,-1.36,-0.97,0.19,1.29,-14.32,-1.95,4.08,-0.71,0.06,-0.18,-13.18,0.32,9.21,2
-0.55,-0.46,-0.38,-5.17,2.26,-12.59,0.38,0.04,0.24,3.75,-4.39,4.08,0.79,-0.99,-0.18,11.23,4.23,-12.28,2
1.85,1.34,-0.68,8.99,-9.46,5.48,0.38,-0.41,-0.81,15.47,-1.95,-3.73,0.64,0.96,-0.33,-3.9,-4.56,-1.05,2
-1.0,1.49,0.82,6.54,-4.09,7.43,0.08,0.79,0.69,-4.55,-3.9,3.59,-1.46,0.06,0.27,-2.44,4.72,-5.44,2
0.95,2.39,0.97,-9.08,-5.07,1.57,0.08,0.04,0.99,16.93,10.75,5.54,-0.71,0.96,-1.08,-2.44,-4.07,4.81,2
0.35,-0.01,-0.38,-2.24,-1.16,8.89,0.23,0.64,0.09,-6.99,4.4,-1.78,-1.46,0.06,-0.93,-0.97,-9.44,1.88,2
0.35,1.49,-0.83,-5.17,7.14,7.43,-0.22,0.64,0.84,0.33,-5.85,-7.15,-0.26,0.81,-0.48,-3.41,10.58,5.79,2
-0.1,0.29,-0.08,-12.5,-6.04,-2.34,-0.22,0.94,0.54,5.21,-12.2,-8.13,-0.26,1.26,0.57,-5.86,0.81,-5.44,2
-0.55,0.29,-0.83,-10.06,-11.9,-3.8,-0.82,0.34,-0.06,-2.11,0.01,15.31,0.19,0.66,0.42,-9.76,-4.07,-6.42,2
0.35,0.29,-0.83,-7.62,1.28,-3.8,-0.52,0.19,0.54,-4.55,-1.95,-3.73,-0.56,0.36,-0.33,1.96,-1.63,7.25,2
-0.25,0.44,1.72,-6.15,-2.62,6.94,0.38,0.79,-0.06,-5.04,-1.95,0.17,0.04,0.81,-0.93,-7.81,3.25,-3.98,2
-1.15,0.89,-0.23,2.15,0.31,0.1,-0.82,1.54,0.24,10.1,0.49,13.36,0.04,0.81,0.27,-1.95,11.55,-0.07,2
0.8,1.04,-2.03,-11.52,6.17,4.99,0.23,0.94,0.54,4.73,12.21,-4.71,1.09,1.41,0.42,-5.37,-2.61,8.72,2
-1.0,1.04,-0.08,-8.1,2.75,3.52,0.08,0.79,0.69,-4.06,-1.46,7.01,0.79,1.56,-0.18,1.96,-8.95,7.74,2
-0.1,0.74,-0.08,-1.76,18.37,-6.73,0.68,0.94,-1.11,1.8,-2.44,-2.76,0.04,0.51,0.87,6.35,1.3,2.37,2
-0.7,1.34,0.97,-3.22,2.75,3.52,-0.97,0.64,1.29,-3.09,-0.97,-0.32,0.19,1.41,-0.03,4.4,1.3,9.21,2
1.4,1.34,-0.98,-4.2,4.7,-3.8,-1.57,0.34,0.99,-4.06,8.8,3.1,-0.86,0.36,-0.03,1.47,-4.56,-4.95,2
-1.3,-0.01,-0.38,2.64,-5.55,2.55,-0.22,-0.56,0.54,10.1,-5.85,7.5,0.19,1.41,-1.08,-6.83,3.25,3.35,2
-1.3,1.04,-0.08,2.15,0.31,9.87,-0.52,-0.26,0.09,5.21,-3.9,-11.55,-0.26,0.51,0.57,-0.97,4.72,-3.49,2
0.5,0.89,-0.68,7.52,10.56,4.5,-0.97,-0.26,0.09,-4.55,5.87,7.99,0.04,0.51,1.32,-3.41,4.72,2.37,2
0.95,0.44,-0.98,8.01,-4.58,-0.87,-0.37,0.34,0.69,6.19,12.7,7.5,1.24,0.51,-0.93,-4.88,-1.63,13.11,2
-0.25,1.34,-0.23,0.69,2.26,4.5,-0.22,-0.26,0.84,0.33,3.91,6.03,-0.26,0.81,1.32,-4.88,-5.54,-6.91,2
-0.55,1.04,-0.08,-0.29,3.24,-5.76,0.08,-0.41,0.24,-3.57,2.94,-1.29,0.04,0.06,-0.18,-1.46,2.77,0.42,2
-0.55,0.29,0.82,-12.5,5.68,-3.31,0.08,0.34,0.24,-2.11,6.35,-2.27,0.04,1.26,-0.18,-7.81,-11.39,2.37,2
0.5,0.44,-0.68,9.47,1.77,-4.29,-0.82,0.04,0.69,6.68,-3.41,2.61,0.64,0.96,-0.33,3.91,7.65,-3.0,2
0.05,2.09,-0.98,-3.71,-14.83,-8.68,-0.52,0.94,-1.41,-2.11,0.01,11.4,-0.56,-0.09,0.72,-8.3,-5.54,-3.0,2
-0.55,1.49,0.82,-6.15,-1.16,-5.27,-1.42,1.39,-0.66,3.26,7.82,-5.69,0.19,0.96,-0.33,-8.79,-11.88,3.83,2
-0.7,1.64,-0.68,-4.69,2.75,34.28,-0.97,0.64,-1.11,0.82,-2.44,10.91,-0.71,0.51,-0.93,20.02,-3.09,-19.11,2
-1.3,0.29,-0.08,14.85,-8.48,-49.7,0.68,0.64,0.09,-0.64,14.17,68.53,-0.26,-0.24,0.27,-42.96,29.13,60.48,2
2.15,2.39,0.97,22.66,-65.12,-334.86,-0.22,1.39,0.84,-27.5,-18.06,189.63,-0.26,1.26,0.87,-136.71,120.93,389.58,2
6.5,2.24,2.32,56.35,-1.16,61.63,2.03,1.54,2.94,50.63,-134.76,187.67,0.79,2.31,1.32,-337.4,171.71,593.19,2
10.55,3.44,2.77,-36.42,9.1,29.4,2.93,3.79,5.64,-24.08,26.86,31.42,0.49,0.06,1.62,-34.66,-2.61,-10.33,2
12.95,3.29,2.47,12.4,-17.76,40.63,3.08,2.89,4.74,24.75,-20.99,17.26,0.04,1.56,1.62,-21.97,34.5,2.86,2
11.15,1.34,-0.23,59.28,61.83,64.07,2.03,4.54,2.19,28.65,-14.15,8.47,0.79,3.36,0.87,-55.66,11.55,8.23,2
9.8,1.04,0.82,-43.26,14.95,39.66,2.33,4.39,2.04,36.46,-26.85,-5.69,0.19,1.41,0.72,-17.57,-15.3,-55.25,2
6.2,1.04,-0.08,-138.96,2.75,-3.31,0.38,2.29,1.44,-128.57,36.63,202.32,0.64,0.96,1.47,174.32,-2.12,-88.94,2
2.0,1.49,2.77,9.47,13.0,5.48,-0.22,2.14,3.09,207.36,236.82,-543.28,0.79,3.06,0.87,-67.87,89.68,903.25,2
0.95,0.14,3.67,-2.24,-2.62,-13.57,-1.42,2.14,3.99,1.8,-8.29,10.91,-0.86,2.46,1.47,-8.3,0.81,10.67,2
0.5,-0.31,1.27,14.36,-7.02,11.82,0.08,0.79,3.69,16.45,-6.34,-3.25,0.04,2.31,0.57,-2.93,10.09,5.79,2
-0.25,0.44,1.72,8.99,-1.16,-9.17,-0.82,1.09,2.94,10.1,-12.2,9.45,0.19,1.71,1.17,-1.95,7.16,6.28,2
-1.0,0.74,1.12,11.92,-9.46,1.57,0.38,1.09,1.44,-6.99,-0.48,-3.25,1.69,1.26,0.27,-9.76,-11.88,-0.56,2
-2.35,1.64,1.27,28.52,15.93,27.94,-1.57,-0.71,0.69,10.1,8.31,-67.7,-0.86,0.36,1.47,38.09,-10.91,-72.34,2
-2.65,0.29,1.12,96.88,9.58,-5.76,-1.57,0.04,1.44,71.62,-21.97,-46.21,0.04,2.31,0.87,173.34,7.16,218.68,2
-3.25,2.09,-0.23,48.54,-11.9,50.89,-0.37,0.34,0.24,-12.36,-16.11,54.37,-0.56,0.96,-0.33,-61.52,24.25,32.64,2
-3.7,2.84,0.22,116.41,6.17,131.45,-1.12,0.79,0.24,-44.59,31.26,77.32,1.24,1.26,-0.48,-110.84,-6.51,1.39,2
-4.3,0.74,-0.38,87.6,-26.06,-63.86,-1.72,0.64,0.54,-61.19,57.14,-16.92,0.04,2.01,0.87,-66.4,-6.51,-9.35,2
-1.0,1.49,-0.83,-91.6,-52.43,-28.22,-0.97,0.64,0.54,-80.72,-10.74,98.32,-0.26,2.01,-0.18,20.51,81.38,222.1,2
-0.55,-0.01,1.12,13.38,2.75,11.33,-0.52,-0.26,0.84,141.45,-117.67,-76.49,0.49,1.56,1.62,828.13,-188.15,-728.1,2
-0.7,0.44,-0.23,4.59,-12.88,-3.8,0.08,0.79,0.24,3.26,-1.95,-3.25,-0.56,0.36,-0.33,9.28,-12.86,1.88,2
0.05,0.89,-0.23,0.2,-5.07,8.4,0.23,0.64,0.54,-0.64,-5.36,2.13,0.64,1.41,-0.03,10.26,-5.05,20.44,2
0.05,0.89,-1.43,0.69,-1.65,4.5,-1.42,-0.26,0.84,-0.64,-13.18,-8.62,-0.26,1.26,0.87,12.7,-1.14,6.76,2
-0.25,1.34,0.22,1.66,1.77,3.03,-0.82,0.79,0.69,14.0,-7.32,-10.08,0.19,0.96,-0.03,9.28,-1.14,12.14,2
-0.55,0.74,0.37,-0.78,-3.6,5.48,-1.12,0.34,0.69,-0.16,-8.78,-2.27,-0.71,0.81,0.27,1.47,5.69,16.04,2
0.05,0.44,-0.68,-5.66,0.79,-5.76,-0.52,0.19,0.09,-0.16,-5.36,-3.25,1.09,0.66,-0.03,-9.76,3.25,4.32,2
-0.1,2.69,0.82,12.89,-0.18,-8.2,-0.37,-0.41,0.69,11.56,-0.97,-4.22,0.04,0.81,0.27,7.33,-6.02,8.23,2
-1.15,0.44,-0.23,-1.27,-16.78,7.92,-2.17,0.64,0.09,-9.43,8.31,-1.78,-0.71,0.51,0.57,2.45,-12.37,1.88,2
-0.7,-0.31,0.22,9.47,-5.07,-5.27,-1.12,0.34,-0.51,-2.6,3.91,0.17,-2.51,0.66,0.72,11.23,1.79,16.04,2
-0.7,2.09,0.52,-6.15,1.77,-3.8,0.08,0.34,0.24,2.29,-10.25,5.06,-0.86,-0.39,0.42,-13.18,4.23,10.18,2
-0.7,0.89,0.97,-16.89,-15.32,4.01,0.83,1.09,-0.81,1.31,-9.76,6.03,0.04,1.26,0.27,7.82,1.79,-2.02,2
1.4,1.64,-0.68,-4.69,3.72,-1.36,0.08,0.79,0.99,-4.55,-11.22,-0.8,0.79,0.51,-0.18,2.93,2.28,3.83,2
-0.55,-0.01,1.12,-5.17,-7.51,-0.87,-0.37,0.79,-0.81,-4.06,-3.41,5.54,-0.11,0.66,0.42,5.38,2.77,4.32,2
-0.55,1.94,-0.38,-5.66,-4.58,-6.24,-0.52,0.19,-0.21,-8.95,3.42,-2.27,-0.56,0.36,0.42,8.79,-4.07,3.35,2
-0.1,1.04,-1.58,3.13,-11.9,-8.68,-1.12,0.04,0.69,1.31,0.49,1.64,-0.86,2.46,1.17,-10.74,-1.63,4.32,2
0.5,1.64,2.17,11.43,8.12,-3.31,-2.17,-0.26,-0.21,-0.16,-5.36,-4.22,-0.56,-0.09,0.72,-6.34,-8.47,0.91,2
-0.1,0.29,-0.08,8.99,-7.99,6.94,-0.37,0.04,0.24,-2.6,-11.71,-2.76,-0.56,-0.09,0.72,-0.97,-6.02,3.83,2
-1.6,0.89,-0.98,-14.94,3.24,-12.59,-0.97,0.94,0.09,3.75,-4.88,10.43,0.19,0.36,-0.03,11.23,8.62,11.65,2
-1.3,1.04,-0.08,-1.76,0.31,-0.87,-0.82,0.34,0.24,2.29,0.98,-12.03,-0.56,0.96,0.42,-11.23,-11.88,4.32,2
0.35,0.74,-0.38,-6.15,-11.9,16.71,0.38,0.34,0.99,12.05,-4.88,1.15,-0.11,0.96,0.72,4.89,-3.58,9.69,2
0.5,0.89,0.22,-5.17,2.26,-10.15,-0.82,1.09,-0.06,5.7,-8.29,0.17,-0.26,1.56,-0.48,-5.86,1.3,-4.95,2
-0.55,0.29,0.37,-9.57,-12.39,3.52,-0.97,0.19,-0.21,0.33,-8.78,1.64,-0.26,1.26,0.87,7.33,-1.63,11.65,2
-1.15,0.14,0.22,11.92,-21.18,4.99,-1.57,1.09,0.99,-0.16,-13.18,9.94,0.19,0.96,0.72,-5.37,-1.63,-2.51,2
-1.6,0.44,0.22,-7.13,-6.04,5.48,-0.97,0.64,-0.66,-2.6,-8.29,-1.78,-0.71,0.81,-0.93,-9.27,-13.35,4.32,2
-0.7,0.89,-0.23,2.64,-9.95,4.5,-0.37,0.04,-0.81,8.63,6.35,1.64,-0.71,0.81,0.57,-5.37,-1.63,-0.07,2
-0.55,1.04,-1.28,0.69,-1.16,-4.29,-0.97,0.94,-0.21,5.7,-5.36,-0.8,0.19,1.71,0.72,6.35,9.6,9.69,2
-1.0,1.49,-0.08,-8.59,1.77,-1.36,-0.52,-0.26,-1.11,-3.09,-4.39,-5.2,-0.71,-0.24,-0.18,5.38,7.65,3.35,2
0.36,1.16,-0.35,4.51,16.59,-11.51,0.54,-0.66,-0.31,-0.49,6.18,3.43,-0.8,-0.58,0.21,-5.6,-6.71,8.72,2
0.06,-0.79,0.1,-0.86,-0.02,-2.72,-0.66,-0.66,-0.31,14.64,-5.54,-5.84,0.25,-0.58,0.96,3.19,-3.78,10.67,2
0.21,0.56,0.7,13.3,-1.97,-4.18,-1.41,0.09,-0.01,-0.49,4.22,7.83,-1.7,-0.28,0.21,-10.0,-7.2,6.28,2
-0.69,0.56,0.7,1.1,-2.46,5.58,0.24,0.09,-0.31,9.27,5.69,-2.92,-1.25,-0.28,0.66,-4.14,-8.18,5.79,2
-0.24,0.86,-0.2,-2.81,1.45,-2.23,-0.06,0.39,-0.16,-6.84,-8.96,2.46,-0.05,1.52,-0.09,7.58,2.08,12.14,2
0.81,0.71,-0.35,-2.81,-10.27,-2.72,0.39,-0.51,0.59,10.25,7.15,1.97,-0.2,-0.43,-0.24,-5.11,2.08,2.86,2
-0.69,-0.64,0.7,7.93,0.96,-7.6,-0.06,0.39,1.04,0.48,10.57,-16.1,0.1,1.07,-1.74,18.32,1.59,-2.02,2
-0.69,0.11,0.7,-1.35,5.84,9.0,-0.06,1.14,1.04,-6.35,1.29,-9.75,-0.05,0.47,-0.84,17.35,-6.71,-27.41,2
-0.99,0.11,0.7,-11.11,12.68,31.95,-1.56,-1.56,-0.16,-6.84,6.66,35.66,-0.2,1.07,0.06,8.07,3.54,3.35,2
-0.39,-0.04,-0.8,-43.34,0.96,-109.65,-0.66,-0.66,-0.01,-1.47,-14.33,175.8,-0.2,1.37,1.86,31.02,-2.81,-39.13,2
-0.99,0.56,-0.95,13.79,18.54,547.57,-2.16,0.54,-0.01,3.41,20.82,-504.38,-3.2,-1.78,-0.09,370.86,-140.5,-704.17,2
-0.39,0.26,1.15,-78.01,-5.88,-77.43,-2.16,0.54,-2.26,48.82,18.87,15.15,-2.75,-2.08,0.96,-17.81,-10.62,374.44,2
-2.64,0.11,1.0,-108.28,6.82,113.98,-3.81,0.54,-0.76,64.93,33.03,179.21,0.55,-1.93,0.06,-103.75,25.02,-30.83,2
-2.94,-0.04,0.85,-246.95,-100.11,465.54,-5.01,-0.21,-0.76,100.58,-25.07,-1114.24,-0.5,-2.83,0.21,-3.65,173.46,273.86,2
-1.29,-0.49,2.8,-276.25,51.74,277.07,-2.91,-0.51,1.34,-536.63,212.23,-161.12,-1.1,-0.13,1.86,-44.18,-163.45,-387.27,2
0.66,-1.09,0.7,19.65,-0.99,-3.21,2.49,-2.76,2.84,8.78,-11.89,12.22,0.85,0.62,4.11,740.49,41.14,-1078.68,2
0.21,-1.09,0.7,18.67,-0.5,-17.86,2.49,-1.26,2.84,-1.47,-5.05,-58.58,1.75,1.37,2.31,-6.58,9.4,6.77,2
1.11,-0.19,1.45,27.46,-15.15,-12.97,1.14,1.44,1.34,7.81,16.43,-187.49,1.45,1.22,-0.54,83.26,-33.08,-63.06,2
0.21,0.11,-0.5,119.26,-60.07,-703.89,1.14,1.14,0.29,47.36,-87.09,132.34,0.7,-0.58,0.21,-253.16,107.54,434.01,2
0.21,1.76,-0.2,-258.67,136.21,4.12,0.84,-0.06,-0.91,-110.36,-25.56,179.7,1.15,-0.28,-1.29,290.78,-71.17,279.23,2
-0.69,1.31,-1.4,59.2,2.91,48.06,-0.96,0.54,-2.26,-102.06,113.11,32.24,0.25,-1.03,-0.09,-114.49,5.49,-9.34,2
0.36,1.46,-0.8,139.28,8.77,-161.41,-2.61,0.09,-1.51,248.04,-146.66,-198.23,-0.8,-1.03,-0.84,-747.3,132.45,659.6,2
-0.84,-0.49,0.85,-109.26,-31.75,-0.28,-2.91,0.39,-0.91,495.6,-186.69,-179.18,-0.5,0.17,1.41,-586.66,-144.9,-350.16,2
1.41,0.86,-0.95,-2.32,-11.74,-32.5,-0.36,-0.81,-1.66,18.55,-16.77,28.33,-0.65,-0.43,-0.24,88.64,92.9,507.75,2
-0.99,0.11,0.25,-12.09,0.96,-1.74,0.39,0.39,-0.16,1.46,2.76,-4.87,-0.65,0.32,-0.24,-8.53,-4.76,-20.58,2
-0.69,0.11,-0.2,-1.35,0.47,15.35,0.99,-0.21,-0.31,-7.82,2.27,-14.15,-0.05,-1.03,0.21,7.09,-2.32,0.42,2
0.21,-0.19,0.25,3.05,5.35,-3.69,-0.66,0.09,-0.31,-0.49,-0.17,-4.38,-0.05,0.47,-0.09,8.07,1.1,2.86,2
-0.39,0.26,0.1,5.98,-9.29,0.7,-0.21,-0.21,-0.31,6.83,4.22,2.46,0.85,-0.43,-0.99,-5.11,1.59,-1.04,2
1.11,0.56,-0.2,7.93,-13.2,10.47,0.99,-0.21,-1.06,-4.89,4.71,0.01,-0.8,-0.58,0.21,-3.16,-0.85,-1.53,2
-0.39,1.16,0.85,-0.86,-6.36,1.68,-0.96,-0.21,-0.46,-3.42,-0.17,-10.73,0.7,0.47,0.21,-6.58,5.0,6.28,2
-0.69,0.86,-0.5,5.49,0.96,-1.25,-0.06,-0.51,0.59,3.9,8.62,9.78,0.25,0.47,2.16,0.26,8.42,-1.53,2
0.21,-0.64,1.0,4.51,5.84,-1.25,-0.06,0.39,-0.91,9.76,-1.64,-3.4,0.1,-0.88,-0.24,-3.65,-1.34,5.79,2
0.36,-0.04,-0.8,14.28,-2.95,-5.16,-0.81,-1.26,-0.16,-8.8,-1.15,-3.89,0.7,0.17,1.41,1.23,3.05,8.23,2
-0.84,-0.04,0.1,-8.67,-5.39,4.12,-0.06,-0.81,-0.16,0.48,2.76,-0.47,0.85,-0.13,-0.24,2.21,5.0,-9.83,2
-2.34,-0.04,0.4,-0.37,-0.99,8.51,0.54,-0.21,0.74,2.92,-6.03,-9.26,0.55,-0.13,0.81,-0.72,3.05,-5.44,2
-0.69,0.11,0.25,0.12,-2.95,8.51,-0.36,-0.51,0.29,2.92,-0.17,6.36,-0.2,0.32,1.11,6.6,0.61,-3.49,2
1.11,1.31,-0.2,-3.3,-7.83,6.56,-0.06,0.69,-0.46,4.88,5.2,0.99,0.25,0.17,-0.54,-9.02,-2.32,7.75,2
-0.39,-0.04,-0.8,-12.09,0.96,6.56,-0.81,-0.51,0.29,4.88,-1.15,-2.92,-0.05,-0.58,-0.09,-10.97,8.42,13.12,2
-0.84,-0.04,-0.35,1.58,8.77,1.68,-0.21,-0.21,-1.06,-0.98,-7.98,-1.94,-0.05,-0.28,-1.29,-6.58,-7.2,15.07,2
0.06,0.26,0.4,-1.83,0.47,0.21,-0.81,-0.06,0.59,3.9,0.81,1.97,-0.2,0.32,1.11,7.09,-10.13,2.37,2
1.11,0.56,0.25,-7.69,-15.64,-0.77,-0.66,0.09,0.74,-7.33,7.15,-9.26,0.1,-0.13,0.06,-17.32,-24.29,9.21,2
-0.39,1.16,0.4,5.0,-9.78,-2.23,-1.56,0.39,1.79,3.41,-1.15,-6.82,-0.65,-0.13,0.06,2.7,-5.25,2.37,2
0.06,0.26,0.85,4.03,-1.97,0.21,0.84,-0.51,0.59,0.48,-1.64,14.17,-0.5,-0.28,0.96,-12.93,6.96,6.77,2
0.21,0.56,-0.2,-2.32,-10.76,-6.14,0.24,0.09,0.74,3.9,0.32,-12.19,1.9,0.17,1.41,-6.58,-6.71,-9.34,2
-0.99,1.31,0.25,-4.28,-3.92,-3.69,-0.36,-1.26,0.59,7.32,5.69,0.99,0.55,-0.88,0.51,-6.09,-5.74,5.3,2
0.66,0.56,0.25,11.84,-0.99,-7.11,0.39,-0.06,-0.46,12.69,-0.17,-1.94,0.7,0.17,0.66,-3.65,11.35,-3.49,2
-0.69,0.56,-0.5,-1.35,2.43,7.54,-1.41,0.09,-0.76,6.34,13.5,-6.82,-0.5,-0.28,0.96,-9.02,5.98,12.14,2
0.66,0.56,0.25,1.58,-5.39,3.63,-0.81,0.39,-0.16,-3.42,5.2,-0.96,0.1,-0.43,-0.24,-3.65,-14.53,4.33,2
0.06,0.26,0.4,6.95,3.89,-5.16,0.54,-0.96,-0.76,-6.35,-6.03,-2.92,-0.05,-0.58,0.21,-11.46,12.33,3.35,2
0.36,1.46,-1.1,9.88,-1.48,3.63,-0.06,-0.81,-0.46,2.43,5.2,-3.89,1.15,-0.28,-0.09,7.09,5.0,-6.41,2
-0.12,0.14,0.4,-4.74,-9.52,-5.28,-0.72,-0.98,0.63,1.92,2.7,0.39,0.68,-0.34,-1.29,-7.11,-3.49,2.04,2
-0.87,-0.61,1.6,3.56,-4.64,11.32,-0.87,0.37,-0.72,5.33,1.72,-2.54,-0.37,-0.34,0.81,-4.18,-5.93,-2.85,2
-0.72,-0.16,1.0,-5.71,-0.24,4.97,0.93,-0.23,-0.12,-4.92,-15.86,-1.07,-1.27,-0.34,-0.24,6.56,-2.51,-6.75,2
-0.27,-0.46,0.55,1.61,-2.68,8.39,1.68,0.97,-0.12,-2.97,5.63,-0.1,-0.97,0.26,1.41,0.7,3.35,2.52,2
0.33,0.14,0.85,-6.69,-0.73,-2.35,-0.27,-1.43,0.63,-1.01,-0.72,0.39,0.38,0.11,-0.24,8.51,-6.42,-2.85,2
0.18,0.74,-0.2,6.49,8.55,-2.35,-0.87,-0.83,0.03,-0.04,5.63,-1.07,-1.27,-0.34,0.81,-11.99,0.42,2.04,2
0.18,-0.16,1.0,0.15,8.55,-6.26,0.03,0.22,-0.42,1.43,-0.72,-4.0,-0.37,-0.64,-0.24,-4.18,12.14,-5.78,2
1.23,-0.31,-0.8,4.54,0.25,-18.47,1.08,-0.08,-0.27,-12.73,0.75,4.3,0.68,-0.64,0.81,2.66,4.81,4.48,2
0.93,-0.46,-1.85,1.61,3.18,-1.38,-0.12,1.12,-0.27,6.31,-4.63,5.27,-0.22,-0.04,-0.39,0.21,-6.91,4.97,2
0.93,-0.16,-0.2,1.61,11.48,3.51,-0.12,-0.08,0.03,-9.8,-4.63,3.81,0.53,-0.04,-0.39,8.51,16.04,-6.26,2
-0.57,0.14,1.15,3.56,-0.24,-10.65,-0.12,0.37,0.03,14.61,-3.16,6.25,0.68,-1.39,0.21,-6.13,8.72,-11.64,2
1.38,-1.21,0.55,12.35,-17.33,-8.7,0.48,-0.68,1.08,-6.87,17.35,-42.58,-0.82,0.86,0.51,7.05,-7.88,-8.71,2
3.18,-1.51,2.35,82.67,51.52,-141.03,1.53,1.87,2.73,-54.24,-7.56,-67.97,1.73,2.06,-0.39,72.97,-25.46,-145.91,2
8.28,-2.86,6.85,-184.42,122.32,327.24,0.63,3.67,3.93,16.56,-19.27,91.7,0.38,2.21,-1.74,-174.59,243.09,100.18,2
10.83,-4.81,10.0,48.0,63.72,23.04,1.08,5.62,5.43,-13.71,-4.63,475.98,1.58,2.96,1.26,-54.96,-22.04,35.73,2
7.08,-2.86,9.7,57.28,25.64,415.62,0.48,4.27,6.03,-34.71,78.38,-212.01,2.93,2.81,1.41,-128.69,17.51,-75.6,2
3.63,-1.06,6.25,924.95,-1532.96,-3015.54,-0.12,2.17,5.88,-249.06,256.6,-885.84,1.88,1.91,-0.24,1524.14,-697.83,-1978.92,2
-1.32,-1.06,4.3,-1.81,-8.54,-9.68,-0.87,-1.58,3.18,-6.87,11.49,29.2,1.58,1.61,1.26,2.66,-15.7,-22.38,2
-1.32,-0.61,2.35,12.84,-23.19,-4.31,-0.72,-0.68,1.08,6.8,-2.18,-30.37,0.38,0.86,2.01,11.44,1.39,25.47,2
-0.12,-0.61,0.85,105.13,50.05,19.13,-0.72,-0.23,-0.12,-46.91,-31.97,-76.27,-0.67,1.01,-0.09,89.57,-18.14,-122.96,2
-0.57,-0.31,1.15,169.58,-168.21,154.87,-0.57,1.12,-0.27,225.55,-97.89,-262.79,-0.82,0.41,-0.54,-35.92,191.82,87.97,2
1.23,-0.31,-0.35,67.53,85.21,406.34,2.13,1.27,0.63,-67.91,-85.68,579.49,0.68,-0.34,-0.24,274.63,-169.02,-426.19,2
2.58,0.29,-0.65,117.82,-196.53,-1314.37,2.88,2.02,-0.42,91.27,-525.13,1023.28,0.53,0.26,0.36,215.06,-77.71,-209.88,2
0.48,0.29,1.0,-2.78,7.08,24.01,0.93,-0.23,-0.12,-67.91,130.14,-204.2,-0.97,-0.79,0.66,1315.16,-2061.59,-2923.26,2
0.48,0.29,-1.4,0.63,0.25,-7.24,0.33,0.67,-1.02,6.8,-3.16,10.64,0.53,0.56,0.36,2.17,4.32,3.01,2
-0.57,-0.61,0.4,-10.11,-6.1,14.25,-1.17,-0.68,-0.42,-6.39,4.65,-3.52,0.98,0.26,0.36,-1.25,-2.02,-3.82,2
0.78,-0.61,-0.35,4.05,4.15,0.58,-1.32,0.67,0.03,-0.53,-0.72,6.25,0.98,-0.04,0.66,18.28,-1.54,-6.75,2
0.93,-0.16,-0.95,-0.34,-3.66,-5.77,0.03,0.52,-0.87,5.82,0.26,3.81,-0.22,-0.79,-0.84,4.61,1.88,-7.24,2
0.93,-0.16,1.3,7.47,2.2,14.25,-1.17,0.52,-0.42,-3.94,2.21,7.71,-0.82,-0.34,-0.99,2.17,2.37,-12.12,2
0.18,0.74,-0.65,3.56,-8.06,-2.35,-0.57,-0.08,-0.27,2.89,1.23,0.39,-0.67,-0.79,-0.84,-8.09,-4.95,-11.64,2
-0.87,-1.06,-0.35,6.49,9.52,-3.33,-1.17,1.27,-0.12,3.87,-8.04,-5.47,0.38,-0.34,0.51,-2.72,-4.95,-8.22,2
0.33,1.34,-0.05,7.96,-5.61,-6.75,0.48,0.22,0.63,-1.99,6.6,-4.98,-0.67,-0.49,-0.84,-4.18,-7.88,3.01,2
1.53,-1.06,-0.35,-4.25,3.66,5.95,0.63,-0.08,-0.72,-11.76,2.7,-9.38,0.98,0.26,-0.39,9.0,-3.0,4.97,2
0.18,-1.21,-0.2,8.45,-1.22,3.02,0.48,0.22,0.33,5.82,6.6,-1.07,1.13,0.86,-0.24,-5.65,-7.4,1.55,2
0.78,0.89,-1.55,-12.55,-0.24,3.02,-0.27,-0.23,-0.12,-18.59,2.7,5.27,-0.07,0.11,-0.54,-4.67,4.32,8.38,2
0.33,0.14,-0.8,-7.67,-5.13,8.39,0.03,0.22,0.33,-0.53,10.02,-0.59,0.08,1.01,-0.39,-1.25,-6.42,-7.73,2
0.33,-0.31,-0.05,-1.81,5.62,-1.38,-0.27,0.22,1.38,8.75,12.46,6.74,0.53,0.56,0.36,-9.06,-3.49,2.04,2
0.78,0.44,-0.8,-0.83,-0.24,-5.77,0.93,0.52,-0.87,-7.36,1.72,4.78,-0.22,0.56,0.66,-16.88,-10.81,1.06,2
-0.57,-0.61,-0.8,13.33,-10.01,-11.14,-0.27,1.27,-0.12,-7.36,-1.7,1.37,-0.22,-0.04,-1.14,1.19,-2.51,10.34,2
-0.12,0.14,1.15,11.87,-5.61,4.48,0.63,-0.38,1.23,-7.36,3.19,1.86,0.53,1.01,-0.39,8.51,-13.26,-6.75,2
1.23,0.14,-0.35,6.98,6.59,-4.31,-0.27,-0.68,-0.12,-4.92,-9.02,1.37,1.13,0.41,-1.74,-1.25,-3.49,-2.85,2
-0.27,-0.16,0.25,5.52,-10.01,4.97,0.93,0.22,0.33,-7.36,3.19,-1.07,0.08,-0.49,-0.09,9.49,8.23,-1.87,2
-1.17,-0.16,0.25,-11.57,14.41,-15.54,0.33,0.37,1.23,2.4,-9.51,-2.05,0.38,-0.64,-0.54,-6.62,-8.86,-0.41,2
-0.12,-1.06,0.4,4.05,-8.54,3.02,-1.47,0.52,-0.42,1.92,-1.21,-3.52,-0.22,0.26,0.36,-2.23,7.25,-2.36,2
-0.27,-0.46,-0.65,6.49,-1.22,12.78,-1.17,0.22,0.33,-5.9,1.23,1.86,0.68,-1.09,-0.54,2.17,-1.54,4.48,2
-0.87,-0.31,0.4,-4.74,7.57,12.78,0.48,-0.23,0.33,-1.01,-1.21,-7.91,1.13,0.41,0.81,8.51,-2.51,-8.22,2
-0.27,1.04,0.25,-7.67,4.64,5.46,0.48,-0.98,0.63,-7.36,-0.72,3.81,-1.27,0.41,-0.24,0.21,0.42,8.87,2
-0.12,0.89,0.4,-3.76,3.66,-6.75,-0.27,-0.68,0.33,-0.04,1.72,1.86,1.13,0.41,0.51,-6.13,-3.0,6.43,2
-0.12,-0.31,0.85,8.45,5.13,-8.7,0.63,0.37,1.23,-5.9,-4.14,-4.0,0.08,-0.49,-0.84,-0.76,-12.28,-4.8,2
1.23,-0.61,-0.35,0.15,-2.68,0.09,-0.87,-0.38,-1.77,12.17,7.58,9.18,0.08,1.31,0.66,-1.74,4.81,-4.31,2
-0.1,0.89,-1.22,-9.51,-12.67,-4.02,-0.9,-1.19,-0.13,-11.1,5.14,-2.13,0.54,0.37,-0.43,-18.36,1.91,3.63,2
0.35,0.89,-0.02,-2.67,2.47,-7.44,0.3,-0.89,1.67,1.11,-3.65,4.71,-1.41,0.37,-0.43,-3.71,-0.53,0.21,2
-0.1,0.89,-0.02,-8.53,-4.86,-7.93,-0.9,-0.14,0.02,7.46,11.97,-10.43,-0.66,-0.68,-0.13,3.62,-1.51,7.54,2
0.35,-0.31,0.73,-1.69,1.49,5.26,-0.75,-1.19,1.37,6.48,-0.23,-14.33,0.09,-0.68,0.32,5.08,0.45,4.61,2
-0.25,-0.16,0.88,-2.18,-2.9,4.28,-0.75,0.01,0.62,-4.26,3.18,3.73,-0.21,0.07,0.62,7.03,-2.48,5.58,2
-0.55,0.44,-0.02,-8.04,4.91,-8.9,-1.35,0.16,0.02,-5.73,-3.16,-5.06,-0.81,-0.23,0.47,-0.78,6.79,-8.09,2
-0.7,0.74,-0.62,3.68,4.42,0.86,1.2,0.01,0.32,3.55,1.23,13.01,0.54,0.67,0.32,-4.2,-2.0,9.0,2
0.35,0.14,-0.77,-1.69,0.51,-0.11,0.9,-0.44,1.37,0.62,-2.19,-1.64,2.64,0.52,-0.58,16.31,4.84,1.68,2
0.95,0.29,-0.62,9.05,5.89,7.21,0.0,0.76,0.62,1.6,-1.7,21.31,-0.36,-0.23,-0.28,9.96,-10.78,-5.65,2
0.2,1.04,-1.07,13.93,-1.44,-20.13,-0.75,0.01,-0.13,14.29,-15.37,55.98,0.39,2.02,-2.08,-15.43,11.68,40.74,2
0.8,0.89,0.43,23.21,-15.11,-87.52,-0.15,0.16,0.77,-0.35,1.72,88.21,-0.21,-0.68,-0.13,-80.86,24.86,91.03,2
0.95,-0.16,-0.17,-12.92,40.55,303.11,0.3,0.16,0.02,11.36,22.72,33.03,0.69,-0.98,0.17,-91.6,-2.48,-44.22,2
4.25,-0.16,-0.62,-75.91,48.85,-136.83,1.95,0.16,-0.73,-102.41,-0.23,133.62,0.39,0.22,-0.58,79.79,-12.74,-57.41,2
2.9,-0.31,-1.22,-103.26,104.52,-32.83,5.1,0.16,-1.78,-36.98,14.42,-23.61,1.14,1.27,1.22,-30.56,-17.13,-117.46,2
2.0,0.14,-2.72,-50.03,-14.13,326.55,5.4,0.46,-2.83,4.04,-38.32,228.83,0.39,0.97,0.77,-102.34,-44.48,90.06,2
0.8,-1.51,-0.02,-465.07,-218.24,-190.05,2.7,1.66,1.67,38.71,-114.0,-258.47,0.99,1.87,0.32,342.48,-68.89,-366.0,2
2.0,-1.81,3.13,-20.74,12.23,10.14,1.05,1.36,3.92,5.02,-8.53,-20.19,1.29,2.92,-0.43,0.69,-6.39,-3.21,2
1.25,0.14,2.38,-36.36,11.74,56.04,0.9,0.46,4.07,-30.14,13.93,41.82,2.94,1.12,1.07,20.71,12.65,7.05,2
3.95,0.74,-0.62,-53.94,-22.92,-166.62,2.7,0.61,1.22,-23.79,-6.09,162.91,2.49,0.67,0.32,90.53,-13.71,-105.75,2
0.8,0.14,0.73,-92.03,20.05,495.98,2.55,2.26,0.62,15.27,23.69,-445.0,2.19,-1.43,-0.88,356.15,-161.18,-685.82,2
2.3,0.74,-1.37,-64.19,36.65,-79.7,3.15,2.11,-1.03,-108.26,-31.48,147.78,0.99,-0.38,-1.63,-171.68,100.06,109.59,2
0.35,1.34,-1.22,329.85,22.0,-478.63,2.55,2.71,-0.43,-275.26,85.22,686.35,-0.21,0.07,-1.18,-690.23,128.38,420.13,2
0.8,0.89,-1.22,-188.71,-200.17,-221.3,-0.15,-0.14,-0.73,-395.37,20.76,-620.78,-0.66,-1.43,-1.18,-980.76,154.74,581.75,2
-0.55,0.44,0.43,7.09,-3.88,-4.51,0.0,0.01,-0.13,6.97,-2.67,-25.07,0.54,-1.13,0.32,-8.1,19.0,75.9,2
0.35,0.44,-0.47,-18.78,-2.42,2.82,0.3,-0.14,-0.28,-3.77,1.23,5.69,0.09,-1.13,-0.13,0.69,0.93,-4.67,2
0.2,-0.46,-1.82,2.7,-11.69,-3.53,-0.6,0.16,-0.28,-5.24,4.65,-0.66,-0.36,0.52,1.22,-6.15,5.82,4.61,2
-0.55,-0.61,0.43,-13.9,-4.37,-7.93,-1.35,0.16,0.02,1.6,-4.14,5.2,-0.81,0.22,-1.03,-5.17,-0.04,-12.0,2
0.5,-0.16,-1.82,7.58,-4.37,-1.58,0.45,-0.74,-0.43,8.92,-7.56,4.22,-0.36,0.22,0.47,-2.24,1.91,6.07,2
1.25,-0.31,-1.22,10.02,6.37,0.37,0.9,0.01,-0.88,-11.1,-4.63,-2.13,-0.06,-1.58,0.47,-1.27,-3.95,-9.07,2
0.2,-0.91,0.88,-2.18,1.98,-3.04,0.6,-0.14,-0.28,1.11,0.74,0.8,0.39,-1.28,0.47,-10.06,10.7,11.44,2
0.5,0.74,-0.17,-8.04,-8.27,-1.09,-0.3,0.46,-0.88,-10.12,0.74,7.64,-1.26,0.97,-0.28,-2.24,19.98,3.63,2
0.35,-1.81,-0.02,-0.23,-1.93,-2.07,-0.15,0.61,0.02,-6.7,6.11,2.76,0.09,0.67,-1.93,-4.2,-12.25,-7.11,2
0.5,-0.16,0.13,-7.07,1.0,1.35,0.45,0.76,-0.43,5.5,4.16,5.2,0.54,0.37,-1.93,-2.24,-5.41,2.65,2
-1.15,-0.46,0.58,-3.65,-3.39,6.23,-0.15,-1.34,0.77,0.62,-3.16,7.64,1.29,1.12,0.62,5.08,-7.37,4.61,2
-1.15,-0.16,0.58,3.19,6.86,-6.46,0.3,-0.14,0.02,-7.68,-3.65,-4.57,-0.36,-0.23,0.47,4.1,-5.9,5.09,2
0.2,-1.21,-0.62,8.56,-4.37,-11.34,0.3,0.16,0.02,-0.35,-2.67,-7.01,-1.56,-0.23,0.17,7.03,8.26,0.7,2
-0.1,0.14,0.73,2.7,-11.2,-0.11,-1.2,-0.74,0.62,-3.77,12.95,-0.17,-1.56,0.22,-1.33,4.1,-1.02,-0.77,2
-1.6,-0.91,0.58,-1.21,-1.44,-5.97,1.2,0.76,0.62,7.46,1.23,-7.5,0.09,-1.43,-0.13,6.55,-0.04,1.68,2
0.95,-0.16,-0.17,1.72,6.86,11.61,0.45,1.51,0.32,1.6,-1.7,-1.15,0.69,-0.23,0.47,2.64,10.7,2.65,2
0.95,1.04,-0.17,-9.51,8.33,0.86,-0.3,0.46,0.62,3.06,-8.05,-6.03,-0.81,-0.23,-0.28,4.1,7.28,-8.09,2
0.5,1.04,0.88,10.02,-1.44,7.21,-0.15,0.61,-0.73,8.92,0.74,-0.66,0.54,0.07,-0.13,-5.17,-6.39,3.63,2
0.8,0.14,0.43,-0.72,-6.81,10.63,-0.9,-0.14,0.02,-0.84,-2.19,-5.06,0.69,-0.23,-1.03,3.13,-3.95,-0.77,2
0.5,-0.91,-0.17,12.95,0.03,2.82,0.45,0.01,0.62,-4.26,-9.02,3.73,-0.36,-0.23,0.17,-7.61,-5.9,-4.18,2
0.35,-0.61,-0.47,4.65,-2.9,-5.0,0.45,-0.44,-0.43,-5.24,15.88,5.2,-0.66,-0.38,-0.13,-7.61,1.91,-13.46,2
0.35,0.14,-0.47,-6.09,8.33,0.86,-0.15,-0.59,0.02,5.5,-2.19,-6.03,-0.81,-0.98,0.17,8.01,-4.93,0.21,2
0.5,-0.16,-0.17,0.26,-1.93,-10.37,0.45,0.76,-0.13,-3.28,1.23,2.27,-0.96,-0.38,0.32,1.17,3.38,0.21,2
0.5,-0.16,-0.17,-10.97,2.96,-0.11,-0.75,-0.44,0.62,-11.1,-0.23,-3.59,-0.21,1.12,-0.13,0.69,14.12,9.0,2
0.8,-0.31,-0.77,-6.58,-0.46,-0.6,-0.3,0.76,0.32,5.02,-7.07,-7.01,-0.21,-0.38,-0.13,-7.13,-2.97,-1.25,2
-0.7,-0.16,0.13,0.75,5.4,-6.46,0.0,-0.44,-0.13,3.06,-6.58,2.27,0.54,-0.38,-0.13,-1.76,-4.93,1.19,2
0.35,0.14,-0.02,10.02,-1.44,-6.95,0.9,0.01,1.07,4.04,-8.05,-6.52,0.09,-0.38,0.32,-3.22,4.84,3.63,2
0.87,0.24,-2.17,-6.84,-9.77,-0.9,0.35,0.84,-0.52,-1.44,-7.15,10.26,-1.1,-0.63,0.82,9.69,6.82,5.49,2
-1.08,1.14,-0.37,1.94,-9.29,8.38,0.05,1.89,0.08,2.47,-0.32,14.17,-1.25,-0.93,-0.08,0.41,11.71,13.8,2
0.57,-0.06,-0.82,5.85,-0.98,-5.78,0.65,1.29,-0.97,-13.16,3.59,-3.41,-0.05,-0.18,-0.83,0.41,0.48,8.91,2
1.02,1.14,-0.82,-13.68,-7.33,-2.86,1.1,-0.21,1.43,-8.76,3.1,0.49,0.1,1.17,-0.23,14.08,-3.43,2.08,2
0.87,0.54,-0.52,-27.35,16.59,45.97,-0.25,0.39,0.08,-8.27,14.33,24.91,1.3,0.12,0.07,3.34,-3.43,3.54,2
0.42,0.54,0.68,-28.82,-18.56,-67.8,0.05,0.39,-0.37,-12.67,7.5,83.99,0.25,1.32,-0.83,-9.84,30.26,119.26,2
-0.18,-1.11,0.08,-45.42,62.0,-119.07,-0.7,1.14,1.88,61.55,-59.89,24.42,0.1,0.72,0.82,455.98,-244.15,-786.5,2
-0.18,-0.06,-0.37,64.44,31.24,-38.01,-3.55,0.69,4.28,10.77,4.57,-0.48,0.4,0.12,0.52,-74.3,3.41,47.49,2
-0.78,-0.51,0.23,121.09,112.78,42.07,-2.95,0.54,6.68,70.34,-111.16,-4.39,-1.55,0.42,-0.98,-311.6,26.84,-84.84,2
-3.48,-0.81,2.03,-514.66,-42.49,-49.24,-2.8,-1.26,5.03,368.68,-85.77,-286.13,-0.5,1.77,1.72,-97.73,-96.2,-154.17,2
-3.18,-4.71,3.23,29.29,-9.29,-5.78,-3.55,-3.51,5.03,379.91,-228.83,1023.38,-1.55,3.27,3.07,-261.8,427.72,841.43,2
0.87,-3.36,5.33,27.34,-41.51,-63.89,-1.3,-1.41,7.43,28.35,-10.08,-158.2,1.9,3.12,2.17,-77.71,48.33,154.42,2
1.92,-2.01,2.78,4.39,-1.47,15.7,0.35,1.59,4.43,65.95,-161.45,681.65,2.2,3.12,2.17,-77.23,47.35,156.37,2
1.32,-0.96,0.68,-135.75,3.41,-174.73,1.55,0.54,2.48,248.07,-56.47,-273.43,2.65,2.37,1.42,-76.25,199.7,743.78,2
2.07,0.99,0.98,-286.63,-4.89,-151.78,2.15,2.94,4.58,-305.64,343.92,-177.73,2.95,1.77,0.67,1121.02,216.79,579.23,2
1.02,-1.56,1.13,-291.51,-33.21,452.22,3.95,4.29,6.68,-151.34,214.04,-71.28,2.8,2.67,1.27,572.19,24.89,64.58,2
1.02,-0.81,0.83,139.64,25.87,223.71,1.25,1.89,2.33,-1125.46,474.78,627.45,0.85,0.72,0.82,-82.6,-76.67,207.64,2
1.32,0.24,0.68,-18.56,-18.07,-7.74,2.0,0.09,1.43,2.96,-0.8,7.82,1.3,0.72,-0.23,786.06,-26.38,-459.84,2
0.57,-0.81,-0.82,11.71,15.13,22.05,0.05,1.14,1.88,-10.71,5.06,-14.64,1.3,0.72,0.82,12.62,-6.36,25.51,2
-0.48,0.24,0.23,11.71,5.36,7.4,0.35,0.54,1.43,0.03,-5.2,2.94,-0.65,0.12,0.52,-1.05,1.45,25.51,2
-0.63,-0.36,-0.37,1.94,-5.38,1.54,-0.1,0.09,-0.52,10.77,4.08,-7.32,-0.95,-0.93,0.37,-0.57,-2.94,2.57,2
-1.08,-0.06,-0.37,-10.26,1.94,6.91,0.65,0.54,-0.22,-1.44,-3.73,-8.78,1.0,-0.18,0.37,-3.98,3.89,8.42,2
-0.18,-0.06,0.08,4.87,6.83,3.0,-0.25,0.39,0.83,11.26,-8.62,0.49,-0.05,-0.18,0.67,-2.03,-0.99,-8.67,2
0.57,1.14,-1.12,-13.68,-4.89,2.03,0.35,-0.21,-0.22,-3.88,10.43,6.35,0.85,-0.63,-0.98,-2.52,-1.48,9.4,2
-0.63,-0.06,0.38,5.36,8.78,4.47,0.65,0.54,-0.52,-2.9,-1.78,11.72,-1.1,0.42,-0.23,-6.91,3.89,5.49,2
-0.18,0.39,-0.82,-0.01,1.94,2.52,-0.55,1.29,0.53,8.33,-3.25,5.87,-0.95,1.02,-0.38,16.04,-5.38,6.47,2
-1.68,0.24,-0.97,-2.45,-5.38,2.52,-0.1,-0.66,0.98,-2.41,5.06,8.8,0.85,0.12,0.52,-3.5,-0.5,9.89,2
-0.78,0.54,-0.52,-4.89,-11.73,-2.86,0.5,0.39,0.08,-4.37,6.03,8.31,-0.35,0.42,0.82,1.88,2.43,9.89,2
-0.48,-0.96,0.98,10.25,2.92,-7.25,0.05,0.69,-0.67,-4.86,-6.18,1.47,0.85,-1.08,0.52,-5.45,-1.48,1.1,2
-0.78,0.99,0.23,-0.98,6.83,-12.62,-0.7,0.39,-0.67,12.23,2.13,4.89,-0.05,1.02,0.67,-4.96,-0.5,3.54,2
0.27,0.39,0.08,1.94,-2.94,-6.76,-0.7,1.14,0.38,-4.86,8.96,-1.95,0.25,-0.18,0.67,-2.52,5.85,11.35,2
0.87,-0.51,-0.22,7.8,-12.7,3.0,-0.7,-0.51,0.08,1.0,-10.57,1.47,0.1,0.12,0.07,-6.91,0.97,-3.78,2
0.57,-0.06,1.73,-11.24,-5.38,3.98,-0.55,0.54,0.23,-2.41,-3.73,-0.97,1.0,0.57,-0.38,2.85,4.38,11.84,2
-0.18,-0.06,0.38,0.48,7.8,-13.6,-1.75,0.84,0.98,-0.46,-14.96,3.42,0.4,-0.63,0.52,-8.38,4.87,-9.15,2
-0.78,-0.51,0.23,-5.87,-10.75,0.56,0.95,-0.06,-0.37,4.91,-0.8,2.94,0.4,0.42,0.82,-3.98,11.22,2.57,2
-0.18,0.39,0.08,-6.36,-12.22,-6.27,-0.1,0.54,-0.52,0.03,9.45,-3.41,2.05,0.12,0.52,-0.08,6.34,4.03,2
-0.18,-0.36,-1.57,6.34,17.08,-12.13,0.05,0.69,-0.67,-4.86,-4.22,6.84,0.1,-0.63,0.82,4.81,6.82,5.01,2
-1.23,-0.21,0.23,4.87,6.83,5.45,0.35,0.54,-0.97,7.84,-3.73,-0.48,-0.65,0.12,0.07,-5.94,4.87,5.98,2
-2.88,-0.51,0.68,13.66,-0.01,-2.86,0.05,-0.51,-1.12,6.86,8.47,-3.41,1.0,0.57,1.42,-1.54,-14.17,8.42,2
0.42,-0.21,-0.22,4.87,11.71,-2.37,-0.25,0.39,0.38,-10.23,-2.27,-7.81,-0.35,0.12,-0.23,-1.54,-0.5,16.73,2
0.57,-0.06,0.08,-7.33,1.94,-14.09,0.95,-0.51,-0.37,12.23,14.33,9.28,0.7,1.02,0.37,-3.5,5.36,5.98,2
-0.78,-0.21,-0.52,10.73,2.43,-6.76,-0.25,0.69,1.58,-3.88,4.08,9.77,-0.35,-0.33,0.52,-6.91,4.87,15.75,2
-0.48,0.54,-0.52,-3.91,1.46,-7.25,0.05,-0.06,0.83,-9.74,5.54,6.35,-0.05,-0.48,-0.08,6.27,-1.48,5.01,2
-0.78,0.24,0.68,5.36,-6.36,-6.27,-2.5,0.54,0.98,3.45,-10.08,-11.71,0.4,-1.08,0.52,-13.26,-13.19,5.98,2
-0.18,-0.06,-0.37,0.97,3.9,4.47,1.25,-0.81,0.38,-8.27,0.66,3.91,0.1,-0.33,-0.23,14.08,1.45,4.03,2
0.42,-0.96,-0.52,11.22,-4.89,-3.83,0.05,0.39,0.38,3.45,-11.55,1.96,0.25,-0.48,0.37,4.32,-5.87,9.4,2
-0.78,-1.41,-0.22,-10.26,4.87,0.07,0.65,0.54,-0.52,-6.32,-5.2,10.75,-0.35,0.72,0.07,6.27,0.48,9.89,2
1.32,-0.21,-0.22,-4.89,4.87,5.93,-0.55,0.54,-0.97,-10.71,-0.32,3.91,1.3,0.12,-0.23,13.11,6.34,-0.36,2
0.42,0.24,0.23,-0.5,0.48,-3.83,0.05,0.39,1.13,-5.83,-5.2,-3.41,-0.35,-0.63,-0.98,-3.98,4.38,4.52,2
0.42,0.54,0.23,-3.43,0.48,-1.39,0.05,-0.81,0.38,-3.88,-0.32,-6.83,-0.05,1.02,-0.08,-2.03,-6.36,6.47,2
-0.84,-0.63,0.15,-2.33,-9.28,-1.79,0.02,-0.29,-0.98,5.43,13.69,0.73,1.31,0.52,-0.15,5.78,-1.12,-7.7,2
-0.39,0.12,0.15,-5.75,2.92,0.65,-0.13,-0.14,-1.13,-1.41,-2.43,2.68,-0.49,0.82,0.75,-5.45,-13.33,-2.81,2
0.66,-0.03,-0.15,2.56,0.48,-9.6,1.22,0.01,-0.23,8.36,1.97,4.14,1.31,-0.08,0.3,-7.4,6.2,0.6,2
1.71,-0.63,-0.3,-4.77,-7.33,0.16,0.77,0.46,-0.53,-0.92,3.43,-6.11,0.71,0.07,-0.3,2.85,-7.96,-5.25,2
0.21,0.27,-1.35,5.0,-6.35,-6.19,0.17,0.61,-0.38,2.99,12.22,19.28,0.71,-0.38,-1.05,-14.24,7.18,14.77,2
0.06,0.12,-0.75,20.62,-40.04,-22.3,-1.03,0.61,-2.33,2.5,-0.96,-49.08,-0.49,-0.38,-2.1,-0.57,9.13,24.53,2
1.71,0.57,-1.05,114.86,-98.15,14.32,-0.43,2.71,-1.73,10.31,-11.7,-187.26,-3.49,-2.33,-4.2,332.44,-39.7,-234.26,2
1.71,2.07,-1.5,-39.44,0.48,-187.34,-1.63,4.51,-2.03,-10.69,34.19,37.35,-5.74,-4.58,-6.3,-188.56,104.84,140.74,2
3.21,1.17,1.05,108.02,12.2,275.55,-1.18,6.46,-0.53,-14.1,-2.43,18.3,-2.29,-7.88,-10.35,71.7,10.11,160.76,2
2.31,1.17,1.05,-58.97,70.8,342.93,0.62,6.31,1.57,35.21,112.81,-403.57,2.51,-3.83,-7.8,-142.66,29.64,128.05,2
0.51,-0.63,0.15,-61.9,38.08,0.65,2.87,1.21,3.67,-48.28,317.4,-1253.18,4.76,-0.08,-1.2,-1566.97,1306.01,1077.2,2
-1.29,-1.08,2.1,-35.04,8.78,53.38,0.02,-1.79,4.42,-13.61,10.27,31.98,1.91,1.12,4.2,42.4,-10.89,-16.97,2
-0.99,-0.48,2.25,-92.17,-30.28,-31.09,-1.93,-2.54,1.72,36.68,-9.26,214.1,-1.24,2.17,3.45,115.64,-70.46,-250.86,2
-1.89,-0.78,0.75,135.37,-132.82,-8.14,-1.63,-0.74,0.52,-27.29,103.04,-862.07,-3.49,-0.08,0.6,252.85,-166.16,-691.29,2
-0.54,-0.78,1.05,170.52,-18.07,-224.45,-3.88,0.31,0.37,318.42,-473.62,-25.64,-4.99,0.52,0.3,-690.02,-127.1,-12.09,2
-0.24,-0.03,0.75,76.29,-29.3,232.58,-4.63,-0.14,-0.68,-0.92,51.77,-56.89,-8.74,-3.68,-1.8,-61.6,-99.75,53.34,2
-1.59,0.57,-1.05,-279.67,122.55,95.86,-3.28,1.51,-1.73,-179.14,63.49,-156.5,-6.49,-2.33,-4.2,92.69,51.12,33.32,2
-0.54,-0.03,-1.65,-350.96,219.72,-143.88,-2.83,-0.74,-1.73,-448.19,981.95,-2522.22,-1.84,-0.08,-3.0,-146.56,915.38,1077.2,2
-1.89,-0.78,1.05,-3.3,8.3,-0.82,-0.13,-0.59,0.07,6.4,-13.66,-3.18,-0.34,0.97,0.3,7.73,-17.72,-34.55,2
-0.99,0.72,0.3,1.58,-17.09,2.6,-0.73,-0.29,0.22,3.96,-1.45,-5.62,-1.09,0.22,-0.15,-5.45,-0.14,-4.77,2
-0.24,-0.03,-1.35,4.02,-12.7,0.65,-0.13,-1.34,0.07,-13.13,5.87,-14.41,0.41,-0.83,0.3,-1.06,-3.56,14.77,2
0.51,-1.08,0.45,-1.35,-20.51,2.11,-0.13,-0.59,-0.38,-0.43,5.87,-6.6,-0.49,0.07,0.15,-3.99,-1.12,-6.23,2
0.51,-0.33,-0.3,5.49,4.39,9.93,0.62,1.06,-0.38,-3.85,0.5,2.19,0.71,0.07,-0.6,8.22,-3.56,6.95,2
0.06,-0.33,-1.5,-5.75,3.9,-1.79,-0.43,0.76,-0.53,6.4,0.01,-3.18,0.26,-1.73,-0.3,-6.91,2.78,8.42,2
-0.24,0.72,-0.15,-0.86,-0.0,-0.33,-0.73,0.01,-0.53,2.01,6.85,12.44,-0.34,0.22,-0.15,3.34,2.78,5.98,2
0.06,0.57,0.45,-8.19,2.44,1.63,-0.73,-0.29,-1.28,6.89,-6.33,0.24,-0.94,0.37,-0.3,-3.5,12.06,-13.56,2
1.11,0.72,0.3,-2.82,0.48,10.42,0.02,0.76,-0.53,2.01,-7.8,2.68,-0.04,0.37,-0.6,-11.8,6.2,4.02,2
0.81,-0.63,0.45,4.51,-2.45,-10.58,-0.43,-0.29,-0.23,-2.38,-7.31,-2.2,-0.94,1.57,-1.05,10.66,3.27,2.56,2
1.26,1.32,0.15,16.23,-4.89,7.97,-1.33,-0.59,-0.38,2.5,6.36,10.0,1.31,0.97,0.3,8.22,-1.61,-1.84,2
-1.29,0.57,-0.3,2.07,3.41,9.44,0.17,-0.14,0.07,2.5,-3.4,8.05,0.71,0.07,0.15,-15.22,-0.63,-7.21,2
-0.39,0.12,0.15,-10.63,-2.93,1.14,-1.03,-0.14,-0.68,4.45,-6.33,3.17,-0.49,0.37,1.95,-2.03,3.76,-3.79,2
0.21,-0.03,0.3,1.58,-0.0,4.07,0.62,0.61,0.07,0.06,-8.29,-2.2,-0.49,0.07,0.75,-4.47,-3.56,4.02,2
-0.54,-0.78,0.75,-6.72,-10.75,-10.09,-1.03,0.31,0.37,-10.69,5.39,7.07,-0.64,0.52,-0.45,5.78,1.32,1.58,2
0.06,-0.33,0.15,1.09,5.37,-4.72,-0.58,-0.14,0.07,6.4,-9.75,-2.69,-0.04,-0.38,-0.3,2.85,1.32,-5.25,2
-0.39,0.87,0.45,6.46,-1.47,-2.77,-1.18,0.01,0.22,0.55,3.43,1.21,-0.49,0.07,0.45,6.76,-0.63,4.51,2
-0.24,-0.78,-0.9,10.86,-3.91,-0.33,-1.33,0.31,-0.68,2.99,3.43,-2.2,-0.04,0.82,0.75,-9.84,2.3,-0.37,2
0.51,-0.33,-0.3,-1.84,5.85,-0.33,-0.43,0.01,0.97,-4.83,14.17,-1.23,-1.24,0.37,-0.3,4.32,2.78,-1.84,2
-0.99,-0.78,-0.9,-0.86,-0.98,9.44,0.62,-0.14,0.07,2.99,-1.94,0.73,-1.09,-0.53,-0.15,16.03,6.2,5.0,2
-0.84,-0.33,0.15,-7.7,5.85,-2.77,0.02,0.46,0.22,-7.76,-3.4,-3.67,0.11,1.27,-0.15,4.32,4.25,-5.74,2
-0.54,0.72,-0.15,-10.63,-10.26,9.44,-0.13,1.36,-0.68,0.06,2.94,12.93,0.26,-0.38,-0.3,6.76,4.74,3.05,2
-0.54,0.27,-0.15,-1.35,-6.35,-0.33,0.02,-0.74,0.52,-7.27,3.92,-0.25,-0.94,-1.43,-0.3,5.78,10.6,-6.72,2
-0.39,0.12,0.15,9.88,-3.91,-9.12,-0.13,0.31,0.37,2.99,0.01,-1.23,-0.49,0.07,-0.3,-3.5,0.34,11.35,2
-0.39,0.57,-0.3,12.81,8.3,3.09,-1.33,0.31,-0.68,-0.43,-1.94,1.21,-0.34,-0.08,-0.45,-1.06,-5.03,-2.32,2
-2.19,-0.03,0.3,-6.72,6.83,6.51,0.17,-0.59,0.37,-1.9,-10.73,-9.04,0.71,-0.68,-0.6,15.06,4.25,4.02,2
0.21,0.27,-0.15,-2.33,-0.0,5.53,0.62,0.31,-0.68,-8.24,1.48,-5.62,-1.09,-0.08,0.6,-14.73,12.06,8.91,2
-0.84,-0.63,0.15,-1.84,5.85,-3.26,-0.58,0.61,0.82,-4.34,17.59,5.61,-0.04,0.82,-1.05,-9.84,-0.63,0.12,2
-0.99,0.27,0.3,-2.82,-3.91,4.56,0.47,0.46,-0.53,-3.36,1.97,1.21,0.11,0.52,0.6,7.25,-5.52,2.07,2
0.66,-0.48,0.75,4.51,0.97,-7.65,0.62,-0.14,-1.13,-8.73,3.43,-1.23,0.41,0.97,-0.15,-4.96,-4.05,3.05,2
-0.39,-1.08,0.15,0.6,14.16,-10.09,-0.13,-0.14,0.82,-2.87,-1.45,4.63,-1.84,-1.28,-0.45,7.25,-13.33,-2.32,2
0.06,0.57,-0.3,-4.77,-9.28,0.65,-1.18,0.01,0.52,3.47,-6.33,15.86,-1.24,0.82,-0.3,-3.99,4.74,14.77,2
-0.78,-0.29,-0.21,-0.45,8.71,2.83,0.15,-0.6,-0.6,-20.43,-12.22,6.62,1.85,-1.32,0.16,1.61,-12.84,-2.04,2
-0.18,-0.14,1.14,-7.77,-3.99,-0.1,-1.05,-0.6,-0.6,-0.9,4.38,-10.47,-0.7,-0.72,0.61,-1.32,5.22,2.84,2
-1.08,-0.44,0.39,-12.16,22.38,3.81,-1.65,0.75,1.05,3.99,8.78,8.09,1.85,-0.57,-0.59,0.64,-8.45,2.35,2
0.27,-0.14,-1.11,-10.21,-15.7,2.34,0.15,-0.15,-0.3,-3.82,-5.38,10.04,-0.1,-0.57,-1.04,-13.04,-4.05,-3.51,2
0.27,0.31,0.84,-0.45,3.83,-1.07,-1.05,0.9,-0.3,-10.66,-2.45,2.23,0.35,0.33,0.31,-5.71,-1.12,-9.37,2
0.42,0.46,-0.21,-1.91,2.36,-8.89,-0.3,0.15,-0.3,1.55,3.4,12.97,-1.6,0.63,-0.89,5.03,0.83,13.09,2
-0.48,-0.59,0.24,-1.42,-1.54,-5.47,-0.3,-0.6,-0.6,6.92,1.94,0.76,0.65,-0.27,-0.59,4.54,4.25,0.4,2
-0.63,0.76,-1.11,-5.82,2.85,-1.07,-1.5,0.15,0.45,-2.85,1.45,2.23,-0.1,-1.32,-1.04,-3.27,3.76,6.75,2
0.57,0.76,0.09,-5.33,-7.89,7.71,-1.05,0.15,0.45,6.43,10.24,2.71,-0.7,-0.42,-1.19,2.59,5.22,-12.79,2
-0.63,-0.44,1.14,7.37,4.31,-1.07,0.3,-1.5,-0.45,4.48,-4.41,-0.7,1.55,-0.72,-0.44,1.61,0.83,14.56,2
-0.63,-0.14,1.14,63.03,28.24,67.77,-1.5,-0.15,1.35,-24.33,19.03,36.89,-1.15,1.38,0.61,26.03,-16.75,-57.22,2
-1.23,-2.54,3.39,31.78,-37.19,-188.57,-3.0,-0.45,6.75,-92.69,94.71,41.29,-1.15,1.08,1.06,-53.08,9.62,66.32,2
-2.88,-4.19,1.74,56.68,-57.7,-326.27,-12.6,-2.7,19.05,37.68,-90.83,61.31,-0.4,2.88,0.31,153.96,-57.77,-193.94,2
-2.73,-3.59,2.04,-245.56,87.81,-181.25,-14.25,-4.5,18.6,43.54,146.96,-295.14,-1.15,3.93,-0.14,-182.96,292.82,384.19,2
-0.63,-4.34,3.54,-8.26,-109.94,-1136.33,-11.4,-4.95,10.65,-38.0,-397.96,-1207.73,0.05,3.93,1.06,63.14,-60.69,-858.98,2
-0.78,-2.99,4.59,-2.4,-3.99,-7.42,-4.35,-0.9,5.55,-9.68,-4.9,-6.07,-0.7,2.88,1.36,-14.5,-6.98,11.63,2
-1.53,-1.19,1.59,16.64,3.83,16.02,-1.5,-0.6,2.1,-18.96,-2.45,50.57,0.2,3.03,1.21,3.08,14.5,5.77,2
-2.28,-1.19,0.09,61.57,-48.42,-36.23,0.15,0.9,0.15,5.45,-0.01,122.34,-0.1,0.18,-0.29,-107.27,22.8,79.01,2
0.57,-0.44,-0.36,-324.66,4.31,-91.9,0.75,1.95,-1.2,-198.65,210.92,-33.91,0.65,-0.57,-0.59,-356.3,75.05,155.18,2
2.37,1.06,-2.01,-38.04,160.56,355.37,3.6,2.7,-3.45,-98.06,79.09,-72.48,-0.1,-0.27,-1.34,446.92,-327.78,-1063.57,2
1.47,0.31,-0.81,50.34,-61.6,-119.73,5.55,2.7,-0.75,-125.9,131.82,408.96,1.4,0.18,-2.09,487.45,-336.57,-1224.21,2
1.02,1.06,-1.56,-4.35,-414.63,-2028.91,2.55,2.4,0.15,666.59,-1760.27,1022.67,1.4,-1.02,-1.34,679.35,-721.34,-2922.94,2
0.57,1.06,-0.81,-5.82,-0.08,-20.61,0.45,0.6,-0.3,16.19,-3.92,7.11,0.35,-0.42,-0.89,-10.6,10.11,11.14,2
0.27,0.76,-0.81,-8.75,-3.99,-16.7,0.75,0.75,-0.45,-7.73,-7.34,9.55,-0.1,0.18,-0.59,-22.31,-5.52,-7.41,2
0.57,-0.14,-0.36,2.48,5.78,8.2,0.3,0.75,0.0,15.22,-10.27,-6.07,0.05,1.08,-1.64,-11.57,2.78,-4.48,2
0.42,0.46,0.24,1.51,-5.45,-1.07,0.3,-0.45,-0.45,-0.9,4.87,11.5,0.05,0.33,-1.19,13.33,-2.1,11.63,2
-0.03,-1.49,-0.21,-3.38,1.39,5.27,-0.75,0.15,0.15,-3.34,-3.92,-5.59,0.2,-0.27,-1.34,6.49,-0.15,-6.93,2
-0.18,-2.39,-0.36,0.04,-1.54,-3.52,-0.75,-0.15,1.35,3.01,5.85,-3.63,-0.55,-1.32,-0.59,-5.22,-1.12,-6.44,2
-0.48,-0.29,-0.21,-1.91,5.78,5.76,-0.15,0.45,-0.75,6.92,-4.41,-9.0,-0.7,0.63,-1.19,-0.83,-8.45,5.28,2
-1.68,-0.59,-2.46,5.41,-3.01,11.62,-0.9,1.2,0.75,5.94,-4.9,3.2,0.05,0.33,-0.14,0.15,0.34,-9.37,2
-0.03,0.46,-0.21,-3.38,-4.96,-9.86,0.15,0.15,0.45,-6.75,6.33,-3.63,0.35,0.33,-1.19,-1.81,2.29,-11.81,2
1.02,-0.44,-0.36,-5.82,4.31,-5.47,0.15,-0.15,0.15,-5.29,-3.92,4.18,0.35,-0.72,-0.14,-6.2,-3.57,-1.55,2
-0.18,-0.44,0.39,9.32,-3.01,-7.91,0.15,0.15,-0.3,-1.38,4.87,6.13,-0.55,-0.27,-0.29,-8.15,-12.36,-1.07,2
-1.08,0.31,0.09,0.53,-6.92,3.81,0.9,-1.35,-0.3,2.52,10.24,-5.1,-0.55,-0.27,-1.04,-8.64,1.81,4.3,2
-0.03,0.46,0.24,13.71,5.78,-1.07,0.15,-0.15,0.45,-1.38,5.85,6.13,-0.55,0.18,-0.29,2.1,5.71,12.61,2
-0.78,-0.29,-0.51,-0.93,5.78,6.25,-0.9,1.2,0.75,-11.15,7.8,-0.22,-1.0,-0.27,0.76,-9.62,2.29,-3.02,2
-1.53,-0.14,-1.11,-2.4,-15.22,-6.93,0.3,0.45,-0.75,-2.85,4.38,-0.7,0.35,-0.42,-0.14,0.64,1.32,-9.86,2
-0.48,0.91,0.24,6.88,-1.06,-4.98,0.15,-0.15,-0.3,-5.78,-3.92,2.71,-0.55,0.48,0.46,3.57,-6.01,4.3,2
0.42,0.46,1.44,-1.42,-13.26,2.83,-0.15,-0.45,0.0,1.06,6.33,3.2,0.05,-1.17,-0.44,-2.29,1.32,-7.9,2
0.42,0.46,-0.51,0.04,-3.01,10.16,0.3,-1.2,-0.45,8.38,3.4,2.23,-0.4,-1.47,-0.89,6.49,7.66,-0.09,2
-1.08,-0.14,-0.36,-3.86,-9.85,2.34,0.3,0.75,0.3,5.94,-0.5,-3.63,0.65,0.93,0.16,6.98,-5.52,-2.53,2
1.02,0.31,0.09,3.46,4.8,4.3,-0.45,0.45,0.75,-1.87,5.36,5.64,1.55,-0.42,0.61,10.4,-16.26,-8.88,2
-0.78,0.91,-0.96,1.02,-3.99,-2.54,-0.75,0.15,-0.3,-1.38,-4.9,1.25,0.2,0.93,0.16,-12.06,8.15,-2.53,2
0.87,0.91,0.69,11.27,-0.08,-13.28,0.3,0.45,-0.45,-12.61,5.36,3.2,0.2,-0.27,-0.59,1.61,-2.1,-11.81,2
-0.63,0.76,-1.11,-5.33,1.39,-1.56,-0.15,-1.2,-0.45,-15.54,-0.01,10.04,1.55,0.33,-0.44,6.98,6.2,1.86,2
1.32,0.16,-1.71,-1.42,2.36,1.85,0.45,-0.6,0.15,-17.5,-1.97,-3.63,1.25,0.33,0.31,4.05,2.78,9.68,2
-0.78,-1.04,-0.21,-0.45,-2.52,0.39,-0.15,0.45,0.3,0.57,-3.43,12.97,0.05,0.03,-0.14,-1.32,-1.61,-7.9,2
-0.03,-0.29,-0.21,0.53,-0.57,4.78,-0.75,-0.6,-1.35,4.96,0.96,-6.56,-0.4,-0.72,0.61,8.94,17.92,-6.44,2
0.87,0.46,-1.41,-11.68,5.78,-3.52,0.15,-1.35,-0.3,-1.38,-6.36,-1.68,0.35,0.03,-0.14,7.96,0.34,-0.58,2
0.27,-0.44,-0.81,5.9,-10.33,-4.98,-2.1,-0.0,0.75,-3.82,-8.8,-3.63,0.95,0.18,0.16,-0.34,-6.98,3.33,2
-2.26,-0.41,0.07,8.2,-9.69,-7.01,-0.57,-1.44,-0.09,-5.26,4.52,3.77,0.6,0.58,1.02,-9.97,-1.74,-0.38,2
-0.76,-0.56,-0.98,-1.56,-7.25,10.57,-0.72,-2.04,0.51,4.51,-11.6,-27.48,-0.75,-0.32,0.87,-15.83,-4.18,13.78,2
-1.06,-0.41,0.37,-24.02,5.93,8.12,-1.17,-1.59,-0.54,19.16,-10.13,-30.89,-1.8,0.28,1.77,44.23,-34.94,-76.06,2
-0.76,-1.46,-0.23,-41.6,15.7,61.35,-0.57,-2.19,0.36,47.96,-23.8,137.08,-2.55,-0.47,2.97,149.69,-75.96,-275.28,2
-0.46,-1.76,-1.73,162.5,-97.1,-242.36,-0.72,-3.84,1.26,33.32,106.57,-839.0,-3.75,0.58,4.02,351.35,-119.91,-697.16,2
-0.46,-1.01,-1.43,-52.83,6.42,-52.42,-0.27,-3.09,1.71,-37.0,50.41,138.54,-4.65,1.93,5.37,98.43,-13.95,-229.38,2
-1.21,-2.21,-1.73,-18.16,8.37,-12.87,-0.72,-3.84,0.51,-1.35,7.45,-22.59,-3.3,3.88,10.32,-46.11,24.63,30.38,2
-1.51,-0.41,0.37,-41.11,40.11,28.63,-0.57,-4.44,1.11,-4.28,40.65,-1.6,-1.65,5.23,17.07,-4.11,31.95,-12.1,2
-1.06,-2.06,1.12,-51.85,-4.32,-21.66,1.23,-6.39,0.96,23.55,2.56,9.63,2.4,5.98,18.87,-40.74,22.67,25.99,2
-0.01,-2.21,0.97,-35.25,-9.21,90.64,0.03,-5.34,2.76,-2.82,0.61,-13.32,4.35,4.48,16.02,33.0,11.93,-31.63,2
-1.51,-2.36,2.02,87.79,-29.71,-68.05,0.33,-5.19,2.31,-19.42,-26.73,53.58,3.45,2.98,12.72,8.09,11.44,-30.65,2
-1.21,-2.51,1.42,-28.9,30.83,-99.79,2.28,-5.19,3.06,15.74,-24.29,-69.96,5.25,2.08,9.87,-21.2,-7.11,17.69,2
-2.26,-3.11,1.57,24.81,33.76,-193.54,1.53,-4.74,4.11,-71.67,-21.85,165.88,3.75,2.38,8.37,83.29,-28.6,-134.66,2
-0.16,-3.11,2.02,6.74,3.98,2.27,0.93,-4.29,3.66,-0.86,-15.5,3.77,2.4,0.43,8.67,8.58,-4.67,-12.1,2
-0.61,-2.81,1.12,-2.05,6.91,-4.57,1.23,-3.84,3.96,10.37,-8.18,7.68,1.95,1.48,8.67,1.26,7.54,5.48,2
-0.46,-1.76,1.72,-2.54,-4.32,-2.13,2.13,-3.84,4.71,9.39,-5.25,9.63,4.05,-0.17,7.32,0.77,-5.65,-4.29,2
-0.01,-1.76,1.72,1.86,-4.81,7.15,2.13,-3.54,2.76,6.95,-6.23,-3.06,2.1,0.58,6.27,-11.44,-5.65,11.83,2
0.29,-2.06,0.37,-9.86,11.3,22.28,1.23,-2.34,2.46,-7.21,7.93,-3.55,0.9,0.58,5.07,27.14,-12.0,-23.82,2
-1.66,-1.46,1.42,39.45,-18.48,3.24,1.08,-2.19,2.61,-35.04,32.84,101.43,3.15,-1.37,4.92,-36.34,17.3,27.94,2
1.34,-2.21,-0.23,-47.95,54.76,461.74,3.18,-2.94,0.66,-95.1,43.58,284.05,0.0,-1.07,6.42,30.55,11.44,-66.3,2
-0.16,-1.16,0.07,-93.36,-24.83,159.0,1.98,-1.44,1.56,-276.25,-275.76,207.39,0.0,-2.87,6.72,158.97,-158.97,-234.75,2
2.09,-1.46,-0.98,-4.49,26.93,-189.63,2.58,-1.29,0.51,1.09,91.92,-32.85,-1.2,-5.12,5.67,-65.15,104.7,25.5,2
0.29,-1.16,0.37,-39.65,-35.08,-146.66,2.28,-2.19,0.66,-114.15,75.81,180.04,-0.75,-5.72,6.12,-33.41,20.72,3.04,2
-0.76,-0.26,0.22,18.95,44.99,-1.64,0.63,-2.49,-0.84,89.96,123.17,-785.29,-0.75,-7.22,7.47,469.03,-156.53,72.37,2
-0.01,-1.46,0.22,33.11,17.65,50.12,0.63,-0.99,-0.09,12.32,-2.32,35.02,2.7,-5.12,6.57,-1.67,-54.48,-35.05,2
-0.16,-1.61,0.37,-7.91,22.53,15.45,1.23,-1.29,0.96,28.43,9.4,78.97,2.55,-1.97,4.77,-47.57,-39.34,-59.46,2
0.89,-1.46,0.97,-7.42,-13.6,-12.87,1.53,0.51,1.56,14.76,-10.13,0.84,1.8,-0.92,1.77,-4.11,1.19,-7.22,2
-0.46,-0.56,1.42,-8.89,4.47,-12.38,0.63,0.06,1.11,0.6,-6.23,-0.62,1.95,-1.07,1.62,1.75,1.19,5.97,2
0.59,0.34,0.07,-7.42,11.79,1.78,0.33,0.51,1.11,5.97,-12.57,-10.87,0.75,0.13,0.12,-2.16,-6.62,8.41,2
0.44,-0.56,0.22,-13.28,7.88,2.27,2.13,0.66,-0.24,6.46,-9.64,6.22,0.6,0.58,-0.33,4.68,7.05,-5.26,2
0.44,0.19,-0.53,6.74,3.98,-6.52,0.33,1.26,0.66,5.48,0.61,-5.5,1.35,-0.17,-0.03,-3.14,1.19,5.48,2
-0.46,-1.01,0.67,-1.07,-3.35,-4.08,0.93,0.36,-0.24,-2.82,-7.69,-1.11,0.15,-0.17,-0.78,-0.7,10.47,-10.63,2
-0.61,0.79,0.37,2.35,5.44,2.75,0.93,-0.84,-0.24,-4.28,-4.27,-5.5,0.75,-0.32,-0.18,0.77,-0.28,-8.68,2
-0.16,0.79,0.37,-1.07,-0.42,3.73,1.08,0.51,0.66,3.04,3.05,1.82,0.75,-1.07,0.87,4.19,1.19,2.55,2
-0.01,-1.46,0.22,2.35,-1.39,-9.94,0.03,0.66,-0.54,-3.31,1.59,-0.62,-0.6,0.58,1.02,-5.09,16.32,-4.77,2
1.34,0.19,-0.23,-1.56,9.35,6.66,0.48,-0.09,0.21,-2.33,4.03,2.8,0.3,0.13,0.87,2.72,1.19,-8.19,2
-0.76,-0.56,-0.98,7.72,-5.3,-3.11,-0.27,-0.84,-0.99,0.6,-4.27,0.36,0.75,-1.37,0.57,-11.44,-10.04,2.55,2
-0.46,-0.26,0.67,12.11,-3.35,12.52,-0.57,0.51,-0.84,-3.79,2.56,3.29,0.6,-0.17,0.72,-5.58,6.56,-2.33,2
0.59,-0.11,0.37,-5.96,-11.16,14.47,0.93,1.11,0.96,6.46,12.82,4.26,1.5,0.43,-0.93,-0.21,-13.95,8.9,2
-0.16,-0.86,0.07,-7.42,-2.37,-0.18,0.03,0.66,0.96,-11.12,6.96,-3.55,0.0,0.73,-0.18,0.28,-7.11,-4.29,2
0.29,-0.41,1.12,2.83,-1.88,-0.18,0.33,0.06,-0.09,-4.28,6.47,-8.92,-0.15,-1.22,-0.03,-9.97,0.7,6.46,2
0.29,-0.41,0.37,3.81,0.07,5.68,-0.72,0.36,0.21,-2.33,-1.83,1.33,0.3,0.13,0.57,-1.18,-2.72,1.57,2
-0.61,-0.41,-0.83,-1.07,7.88,5.2,-0.27,0.66,0.21,9.88,4.03,-12.83,-0.45,0.13,-0.18,0.77,6.56,-10.63,2
-0.16,-1.16,0.07,-2.05,-1.88,-3.11,1.53,-0.24,-0.09,-13.07,-12.09,-10.87,-1.2,0.43,0.87,-5.58,-6.14,2.55,2
-1.06,-0.41,1.57,8.2,13.74,-10.92,0.03,0.66,0.51,-5.26,-5.25,-11.36,0.0,0.13,0.12,-4.6,-7.11,-2.33,2
0.59,0.79,0.82,-1.56,-3.83,-0.18,0.33,0.81,-0.09,2.07,7.93,-6.97,-0.6,0.28,-0.78,4.68,-1.25,10.85,2
0.89,-1.01,-0.53,3.81,-5.3,0.8,0.93,-0.54,0.51,3.53,11.35,6.22,0.15,0.28,0.42,10.53,-15.41,4.02,2
-0.46,-0.26,0.97,-1.56,-5.3,-5.55,-0.12,0.06,-0.09,-13.07,-3.78,0.84,-0.6,-0.47,-0.03,0.77,-5.16,1.09,2
-1.06,0.34,0.37,6.74,12.77,3.73,0.03,1.11,0.51,6.46,5.0,7.68,-0.15,1.03,-0.03,3.21,8.51,-7.22,2
1.34,-0.56,0.67,-0.1,4.47,2.27,-0.72,0.36,-0.24,-0.38,0.12,-1.11,0.3,0.73,0.87,4.19,1.19,11.34,2
-0.48,0.26,-0.92,-13.58,7.26,0.12,0.27,-0.15,0.92,5.82,1.72,4.83,-0.47,0.62,0.06,-2.02,-15.04,-3.7,2
-0.78,-0.49,-0.17,2.53,8.23,-3.78,-0.33,-0.3,-0.43,-2.97,2.21,-17.63,-0.02,-0.13,-0.99,-5.44,3.03,0.2,2
0.27,-0.79,0.88,-14.56,-3.97,4.52,0.27,-0.15,0.17,21.93,-9.02,-14.7,0.13,0.47,-0.09,48.27,-34.57,-72.06,2
0.57,1.16,-1.97,-26.76,0.42,-96.56,-0.93,1.05,-1.48,10.21,-51.5,154.24,-0.62,0.47,-1.14,113.21,-52.63,-204.39,2
0.57,1.91,-1.52,91.4,-8.37,365.84,1.32,3.0,-1.18,-11.76,12.95,-606.5,0.73,-1.63,-2.49,343.68,-109.27,-568.16,2
-0.18,1.61,-1.97,-3.33,23.86,16.23,0.72,5.55,-2.98,2.4,-2.68,68.31,1.18,-4.18,-2.49,-29.85,47.46,125.2,2
0.42,2.51,-2.42,59.17,45.34,109.01,-0.93,6.6,-6.43,54.16,8.55,156.69,0.28,-5.23,-3.24,-82.1,68.46,136.43,2
-1.68,1.76,-0.47,47.46,-24.97,147.09,-2.13,1.8,-5.23,233.36,-56.88,13.13,-1.97,-3.43,-1.74,177.18,-71.19,-200.48,2
-0.48,0.56,0.73,45.01,-377.02,-1274.29,-2.28,-1.5,-3.13,-139.69,-76.41,1021.86,-3.02,-2.08,0.66,-656.32,153.42,376.18,2
-0.18,-1.99,1.63,4.98,-6.41,-15.99,0.72,-0.9,1.67,-9.8,3.67,12.64,1.48,0.32,2.31,-257.39,109.48,281.45,2
1.62,-0.49,1.48,35.25,-44.01,-119.51,0.27,0.3,3.62,16.56,-23.18,-39.6,2.38,2.12,0.81,-104.56,51.86,124.71,2
-0.03,0.26,1.03,7.91,23.86,-188.84,2.37,-0.6,0.92,37.07,-168.2,757.76,1.48,1.37,-0.69,-65.01,25.0,4.11,2
1.62,-0.49,-0.17,-149.32,52.18,106.57,1.17,0.3,0.47,-67.42,132.09,-117.73,0.88,0.47,-0.84,-37.67,112.89,187.21,2
0.27,-0.79,-0.77,-17.0,53.64,-35.03,-1.83,0.75,-0.13,-58.63,62.75,77.58,0.28,-0.43,-0.24,32.16,19.14,-4.68,2
-1.53,-0.04,1.18,123.14,-13.25,-226.44,-0.48,0.3,0.17,-221.23,2.7,464.79,-1.67,-0.13,0.51,-324.29,63.09,238.97,2
-0.48,-0.49,1.03,4.0,-45.97,620.24,-1.23,-0.15,0.92,-148.48,116.46,28.27,-0.77,-0.13,1.26,-753.49,-95.11,-71.09,2
-0.78,-0.19,0.28,21.09,1.89,21.61,0.57,1.2,0.32,-18.11,19.3,-11.77,0.58,0.47,-0.84,17.51,2.54,4.6,2
-1.08,-0.04,0.43,15.23,-3.97,-2.81,-0.93,-0.6,-0.28,1.43,3.67,-0.05,0.13,0.77,0.66,-1.53,7.43,10.46,2
1.32,0.26,-1.37,-2.35,9.21,1.59,1.77,-0.3,-0.43,-4.92,3.18,2.39,-1.22,0.62,0.51,-6.42,-0.88,-4.19,2
