MagX1,MagY1,MagZ1,AccX1,AccY1,AccZ1,MagX2,MagY2,MagZ2,AccX2,AccY2,AccZ2,MagX3,MagY3,MagZ3,AccX3,AccY3,AccZ3,Class
0.32,0.75,-0.94,2.02,0.62,-11.04,-0.44,-0.28,-0.56,-0.81,-3.72,-8.25,-0.21,-0.26,-0.28,11.64,-10.42,4.64,0
-0.73,-1.65,-1.54,-7.75,1.1,-12.01,0.31,0.62,0.34,4.07,2.14,-23.38,-1.56,-1.16,-0.43,20.92,2.28,-19.28,0
-1.33,-0.3,-0.04,-23.37,-24.78,4.1,-1.04,0.62,0.34,5.05,5.07,-86.86,0.39,-1.16,0.32,19.45,-0.65,3.18,0
-0.58,0.75,-0.94,61.1,-41.38,-97.46,0.91,0.47,-0.11,27.51,-1.28,136.28,0.54,0.94,0.17,-156.82,68.2,247.32,0
-0.73,1.35,-0.34,22.04,33.33,-226.86,0.61,-0.43,-1.16,3.09,29.48,-8.74,0.54,0.19,0.47,9.69,-10.9,-66.16,0
-2.23,0,-0.49,8.36,27.96,10.94,-1.19,0.17,-0.86,-13.02,26.06,-39.01,1.59,1.09,-0.13,-5.45,-5.53,6.11,0
-1.78,1.2,-1.24,-15.07,18.19,13.87,-0.44,0.47,0.19,27.51,-5.68,62.55,1.14,0.34,0.32,-42.56,4.23,41.26,0
0.47,1.8,-0.34,22.04,24.05,1.66,1.06,-0.43,-1.46,20.67,-16.42,3.96,-0.96,-0.86,-0.28,20.43,9.6,10.01,0
-0.13,0.75,-1.24,9.83,17.22,-1.76,0.01,0.92,-0.56,3.09,1.16,-0.43,-0.21,-0.26,-0.28,12.13,2.77,0.25,0
-1.18,1.8,-0.34,12.27,20.15,-6.15,0.91,0.17,0.19,-7.65,-1.28,0.05,-1.86,-0.86,1.22,21.4,-6.51,6.11,0
-1.33,-0.3,-0.94,-4.82,31.38,-19.83,-1.19,0.47,0.19,7,0.18,-8.74,-0.06,-1.16,0.32,4.31,-0.16,0.25,0
0.02,0.6,-0.64,13.74,12.33,-3.71,-1.34,0.32,-0.41,-20.34,12.39,-70.26,0.09,0.49,-2.53,-3.01,3.75,5.62,0
-1.63,2.25,-0.34,21.55,19.66,5.56,0.31,1.37,0.34,-3.25,-5.19,-8.25,0.39,-1.46,1.37,-16.68,-2.11,10.01,0
-0.28,2.25,-1.09,7.39,19.66,5.08,-0.59,0.32,0.34,-6.18,6.53,-1.41,-0.21,0.19,0.47,-2.03,-5.53,-10.01,0
-0.28,1.35,0.11,-1.4,43.58,-47.66,0.61,0.32,0.79,2.12,6.04,4.45,0.69,0.34,1.37,16.03,-10.9,-9.52,0
0.47,0.3,-0.64,23.01,51.4,-66.21,1.06,1.82,0.79,-2.77,9.95,14.21,-0.21,0.19,1.22,19.45,-12.37,-19.28,0
0.02,1.05,-0.64,156.8,120.24,10.45,2.26,-0.13,1.54,-10.58,52.43,1.52,-0.06,0.64,-0.88,53.14,-16.76,-57.37,0
-1.18,1.05,0.11,100.65,-156.61,-539.36,-0.44,0.47,-0.56,-64.29,-60.85,-180.61,0.09,-0.56,1.52,-197.35,179.04,-1111.08,0
-0.73,1.05,1.31,-2.38,2.08,0.68,-0.74,0.17,-0.11,5.05,6.53,-1.9,1.14,0.64,0.32,-9.36,-2.11,3.67,0
-0.73,1.05,0.56,-5.8,0.13,-0.29,-0.59,0.32,-1.16,5.54,4.58,-1.9,-0.36,-1.16,-0.13,0.41,2.28,-2.19,0
-1.63,-0.15,0.56,7.88,-5.73,-7.62,0.01,0.92,-0.11,3.09,4.09,-6.29,-0.96,1.69,-0.28,-12.78,0.82,1.23,0
-0.28,0.6,0.56,4.46,8.92,-7.13,1.51,-0.13,1.54,7,-7.63,1.52,1.59,1.09,-0.13,8.22,2.28,6.11,0
-0.13,-0.3,0.71,-2.87,-10.62,-7.13,-1.79,-0.43,0.04,14.81,-4.7,4.94,-0.06,0.04,0.32,-1.55,4.72,2.2,0
-0.88,0.45,-0.04,6.9,5.01,-1.76,-1.19,0.47,-0.56,-4.23,-13.98,-6.29,-0.21,-0.86,-0.28,-6.43,3.75,11.48,0
-0.13,-0.75,-1.24,3.48,5.99,0.68,0.61,0.62,1.24,-9.11,-7.14,-3.85,1.59,0.34,0.62,-2.52,-4.07,-0.73,0
0.02,-0.15,1.31,0.06,-7.69,17.77,1.66,-1.03,-0.11,3.09,4.09,-2.39,-0.21,-0.56,1.52,-8.38,-17.25,-2.19,0
-1.33,0.75,-0.49,11.78,2.08,8.49,0.91,-0.58,0.94,-2.77,-10.07,-3.36,-0.81,-0.71,0.62,-1.55,-12.86,-10.01,0
-0.73,0.3,0.11,-5.8,8.43,-1.76,-0.74,1.22,0.19,3.58,8,-6.78,-0.06,0.34,-0.13,-8.87,-7.49,-3.17,0
-1.33,-0.3,-0.04,1.53,4.52,8.01,-0.14,-0.13,-1.16,0.65,6.53,7.38,-0.06,0.04,0.62,0.9,10.09,9.53,0
0.47,-0.15,-1.54,-5.8,-2.31,1.17,-1.04,0.32,0.04,7,3.6,1.03,-0.81,0.04,0.32,-0.08,0.82,-1.22,0
-0.58,1.2,-0.49,1.04,4.52,1.66,-0.14,-0.88,-0.71,0.65,-3.23,-4.83,0.09,1.69,-0.28,-1.55,5.7,9.53,0
-0.28,-0.6,-0.34,-1.4,4.03,1.17,0.01,-1.03,0.19,-3.25,0.67,-7.76,-0.06,0.04,1.07,-10.33,7.65,0.74,0
-0.73,1.05,-0.64,-14.58,1.59,6.54,-0.44,0.92,0.64,6.51,-13.49,-0.92,-0.36,-1.16,0.32,-13.26,11.56,16.85,0
1.37,0.3,-0.64,-2.38,1.59,-3.22,1.06,0.32,-0.71,-0.81,3.6,-4.34,0.09,0.19,0.47,5.78,-7.97,1.71,0
0.32,0.45,-0.04,4.95,5.5,1.17,0.61,-1.18,-0.41,12.86,-13.98,5.91,0.54,-0.26,0.47,4.8,-5.53,3.18,0
0.02,-0.6,0.56,-5.31,-6.22,2.15,0.31,0.32,-0.71,3.09,-2.75,-4.83,-0.21,0.19,0.47,-8.38,-0.65,22.22,0
-1.18,-0.15,-0.34,-13.61,9.89,2.64,-1.04,0.62,0.04,-0.32,-3.23,-15.57,0.99,0.19,-0.28,-6.92,-6.02,-13.91,0
-0.28,-0.6,0.56,7.39,5.5,2.64,0.61,0.62,-0.71,-15.46,-2.26,9.82,-0.81,1.09,0.62,0.41,0.33,11.48,0
0.02,-0.15,0.86,1.04,16.73,1.66,-0.74,0.47,-0.11,5.54,-3.23,7.38,-1.26,-0.71,-0.88,2.36,10.09,-4.15,0
-0.88,-0.75,1.16,-8.73,-8.66,-4.69,-0.14,-0.43,1.24,-0.81,6.53,-3.36,0.54,-0.56,-0.28,-3.99,-3.09,-5.12,0
-0.88,-0.75,-0.04,12.76,0.13,-2.74,0.01,-0.58,-1.31,-10.58,-4.7,1.52,0.39,0.64,1.37,2.85,-5.53,-4.15,0
-0.28,0.6,0.11,8.36,7.94,1.66,-0.44,-0.58,0.64,0.16,6.04,7.38,1.14,0.34,0.62,2.85,1.79,13.92,0
-0.88,-0.3,0.26,8.85,-3.78,7.03,0.01,0.47,-0.86,-9.11,-1.77,-8.74,-0.21,-0.86,0.17,4.31,-3.58,-4.63,0
0.77,0,-0.49,2.02,-6.22,-11.53,-0.59,-0.43,-1.16,6.02,-5.19,-5.81,0.99,0.19,0.47,-5.45,-5.04,8.55,0
0.32,0,-0.94,-3.84,-4.27,-5.67,2.41,-0.58,0.64,2.61,-1.77,6.4,0.09,-0.86,1.22,-3.5,2.77,2.69,0
0.47,-0.6,0.11,0.55,-0.85,3.12,-0.74,-0.28,0.64,0.16,1.16,14.21,-0.06,0.64,1.07,4.31,11.07,7.57,0
-0.88,-1.2,0.71,9.34,8.43,0.68,0.61,-0.43,0.34,2.12,-1.77,5.42,0.09,-0.56,0.47,-2.52,1.79,9.53,0
1.37,1.05,0.56,6.9,3.54,-4.2,-0.44,-0.58,-0.86,1.14,-0.79,-4.83,-0.21,-0.26,1.22,2.36,-7,10.99,0
-0.58,0.75,0.26,2.99,-1.34,-5.18,-0.59,-0.13,-0.41,-8.62,3.11,2.49,-0.36,-0.41,0.62,6.27,3.26,0.25,0
-0.58,0.45,0.26,4.95,4.03,0.68,-0.74,-1.33,-1.76,-8.62,-11.53,14.7,-1.26,0.34,0.62,-0.08,4.23,-9.03,0
0.25,0.3,0.7,-20.09,12.91,-57.24,0.38,1.06,0.83,-6.22,-3.08,12.94,0.2,0.14,-1.08,-6.68,8.13,-1.24,0
-1.4,0.3,-0.5,-2.51,1.67,-0.11,0.68,0.61,-0.67,5.5,-7.47,20.26,0.2,-0.31,0.42,-0.33,13.5,10.97,0
0.55,-0.6,-0.35,31.18,7.05,-45.03,-0.52,-0.14,-0.37,21.61,-6.01,1.22,-2.05,-0.61,-1.08,-50.62,27.17,45.15,0
-0.5,0.75,-0.5,158.62,-105.26,25.77,-0.07,0.61,-0.67,135.87,-117.82,-51.52,-0.1,-0.31,-0.33,169.59,73.56,29.52,0
-0.95,1.5,-0.5,61.94,20.23,99.01,-0.67,-0.59,-0.52,-36.49,26.22,55.42,0.2,0.44,1.47,-386.07,37.92,-47.63,0
-2,-0.3,-1.1,5.3,34.39,5.75,-1.12,-0.29,0.68,21.12,-20.65,13.91,-0.1,-0.31,1.02,31.41,10.08,21.71,0
-1.4,0.3,0.25,34.6,36.34,26.25,-0.67,0.46,1.73,12.33,0.34,8.54,-0.25,-0.76,1.32,4.55,3.74,17.8,0
-1.1,0.45,0.85,129.33,92.98,16.98,1.13,-0.14,2.33,21.12,-9.91,50.05,0.5,-0.46,0.12,-28.16,32.06,79.81,0
-2,0.15,0.4,-524.48,82.73,-515.25,-1.12,0.91,0.23,637.82,-1261.87,1010.43,-0.85,-0.31,-0.78,779.95,-95.87,-1560.32,0
-0.05,-0.9,1.75,1.89,2.65,-4.51,0.38,-1.19,0.83,-0.36,-0.15,10.98,0.5,0.59,0.57,-5.7,-13.35,0.71,0
0.7,0,0.7,0.91,1.67,5.75,0.08,0.46,0.23,2.08,2.29,-0.25,0.5,1.04,-0.63,17.74,10.08,10.48,0
0.25,-0.9,-0.2,7.75,0.21,12.09,-0.97,1.36,1.28,-4.76,7.67,-1.22,0.8,-1.21,0.57,-8.63,4.22,-0.26,0
1,0.45,-0.35,-3.48,9,-0.6,0.53,-0.29,-0.52,4.03,3.27,6.59,0.2,1.19,0.42,-4.72,-4.08,2.18,0
-0.05,0.3,-0.2,-2.51,-17.37,-2.55,-0.07,-0.44,0.08,-5.24,-0.15,-0.74,1.7,0.29,-0.18,4.07,5.2,-4.17,0
1.15,1.95,-0.5,6.28,-2.23,-12.81,0.98,-0.29,0.23,-3.78,0.34,3.17,0.05,0.29,-0.63,-6.68,5.2,-1.73,0
-0.05,-0.45,0.25,-4.95,0.21,0.86,1.13,1.06,0.08,-4.27,4.25,0.73,0.8,-0.01,-0.63,-4.23,9.59,-8.56,0
0.55,0.45,0.1,1.89,-10.53,-5,-0.37,1.21,0.68,-0.36,-3.56,-2.69,-1.3,-0.31,-0.33,3.58,7.15,5.11,0
-0.35,0.45,-0.35,-3.97,-20.3,-1.09,-0.52,0.61,-0.37,-4.76,1.32,-0.25,0.65,-0.61,0.42,-6.68,7.64,-1.24,0
-0.65,0.45,0.4,4.82,-3.7,-10.85,0.08,-0.29,-0.07,2.57,6.2,-5.13,1.7,0.29,0.57,2.11,-2.12,4.13,0
-0.35,-0.6,-0.8,6.28,-7.6,-2.55,0.53,0.46,1.43,3.06,-5.52,9.52,0.5,-0.76,-0.18,0.16,-2.61,-6.61,0
-0.35,-0.6,0.1,4.82,2.65,-2.07,-0.07,-0.14,0.83,-3.29,-0.15,-10.01,-0.85,-0.31,-0.33,3.09,-13.84,-3.19,0
0.7,0.75,-0.2,12.14,-2.72,0.86,-0.67,0.91,-1.72,7.94,0.83,-7.57,-0.25,-0.01,0.57,6.02,-2.61,7.55,0
-0.65,0.15,0.1,-11.3,3.63,0.38,0.38,-0.14,-0.37,5.01,-8.45,-1.71,0.05,0.59,0.87,-3.75,-9.94,-5.15,0
0.1,0.15,0.1,9.21,-5.16,-3.04,0.98,-0.29,-0.82,-4.76,-6.01,-3.67,0.5,-1.21,-0.18,-0.33,-0.17,-2.71,0
0.7,0,-0.95,-0.07,-11.51,5.26,-0.52,-0.14,-0.37,1.1,-0.63,-3.67,-0.25,-0.01,0.87,1.14,4.71,1.69,0
-0.35,-0.6,1.6,3.35,-0.28,-6.46,-0.07,-0.14,-0.67,2.08,3.27,-4.15,0.2,0.89,1.02,2.11,1.78,4.13,0
0.1,0.45,0.1,-4.46,-3.21,-0.6,-0.67,-0.29,0.98,2.08,-8.94,2.19,-0.85,0.44,0.42,0.16,1.29,0.71,0
1,1.35,0.1,0.91,14.37,9.65,0.08,0.46,-0.82,2.57,-10.89,-6.11,0.65,-0.61,0.72,-4.23,5.69,-9.05,0
0.7,-1.2,-0.2,7.75,12.42,-11.83,-0.07,-0.14,-1.87,-7.2,0.34,-7.08,0.65,0.89,-0.03,3.09,-1.15,9.01,0
-1.1,0.45,-0.35,6.77,2.65,-5.48,-0.97,0.31,-1.12,-4.76,4.25,6.1,0.2,-0.61,0.42,3.09,-4.08,3.15,0
1.3,-0.3,-0.35,-0.56,-0.77,3.79,0.38,0.31,0.08,-5.73,1.81,-1.22,-0.7,1.04,-0.63,-3.75,1.29,-2.71,0
-0.35,-0.3,-0.8,-10.81,8.51,5.75,-0.07,-0.14,-0.37,9.89,-1.61,-8.06,-0.1,0.14,0.72,11.39,1.78,-0.26,0
-0.5,0,-0.2,-7.39,7.05,8.68,-0.07,0.61,0.08,0.13,3.76,-10.01,0.5,-0.01,0.12,-2.28,5.2,7.55,0
-0.5,-0.9,0.25,3.84,-6.14,-8.41,-0.07,1.36,-0.67,-2.31,-2.1,5.12,-0.1,0.44,-1.08,8.95,8.13,-3.68,0
-1.4,-1.95,-0.2,-4.46,-1.74,0.38,0.68,0.31,-0.67,4.03,-0.15,1.71,1.25,0.59,-0.63,4.07,6.67,-3.68,0
-0.05,0,0.25,8.72,8.51,-2.55,0.38,-0.89,-0.37,0.62,-8.94,-3.18,-1.3,-0.91,0.42,3.58,11.55,-2.22,0
1.15,0,-1.4,4.33,-6.63,0.38,-0.52,0.31,-0.37,9.89,-9.91,-2.69,-1.15,-0.76,-0.93,-1.79,3.74,-10.52,0
-0.35,0.15,-0.35,-0.56,-14.44,-1.09,0.08,0.46,-0.07,4.03,-0.15,-0.25,0.2,0.14,-1.53,7.97,9.11,6.57,0
1.15,0,-0.5,0.42,-13.46,6.24,0.38,-0.14,0.38,5.01,0.83,-2.69,-0.25,1.04,0.12,4.07,1.29,-4.17,0
1,-1.05,-0.8,-2.51,9.49,-1.09,-0.37,0.46,-0.07,5.5,-6.49,-6.11,0.5,1.34,0.12,-5.7,1.78,-4.66,0
-0.35,0.15,-0.35,-3.97,-6.14,-2.07,-0.97,-0.44,0.38,-9.15,4.74,-1.22,0.8,0.59,0.57,1.63,5.69,-4.66,0
1.3,0.9,-0.8,-0.07,9.98,1.35,0.53,0.46,-1.27,-5.73,-2.1,1.71,-1.75,0.44,0.42,-2.28,-1.64,-0.26,0
-0.5,0,-0.2,-4.95,-5.65,4.28,0.08,-0.29,0.23,-6.71,-0.15,5.61,-0.85,-0.91,-0.33,-7.16,-6.03,-0.26,0
-0.05,1.05,-0.95,-3,-3.7,-6.46,0.68,-0.44,0.08,-7.2,-1.61,14.4,0.05,-0.46,-0.93,6.51,-2.12,-0.26,0
-1.1,0.15,0.4,6.28,-3.7,-5.97,1.13,-0.44,-1.12,-12.57,12.55,9.52,0.05,0.29,-0.63,4.55,7.64,1.2,0
1,0.9,0.4,-0.56,-1.25,2.82,0.98,0.46,-0.07,6.96,9.62,-10.99,-1.15,-0.46,0.87,-4.72,-1.64,6.08,0
0.25,0,-0.2,2.37,3.14,5.26,-0.37,-0.29,-0.52,-8.66,10.6,6.1,-0.55,-0.91,1.02,2.6,-7.98,0.71,0
0.7,-0.45,-0.2,-4.46,-3.7,7.21,0.98,0.46,-0.82,3.06,-6.49,10.01,-0.85,1.94,0.42,-3.75,-3.1,-1.73,0
1.3,0.45,-1.1,6.28,-1.25,-1.09,-1.57,0.16,-0.82,5.01,0.83,10.98,-0.85,-0.61,0.72,4.07,-8.47,-2.71,0
-0.35,0.45,1.3,-2.51,7.53,4.77,-0.52,-0.14,-0.67,1.59,-4.54,-0.25,-0.55,0.14,-0.03,-7.65,-9.45,-9.54,0
-0.28,0.23,-1.26,1.44,0.22,-14.33,0.13,-0.38,-0.08,0.71,-0.16,-1.98,0.21,-0.37,-0.25,5.42,-2.04,2.55,0
0.47,1.43,0.84,-6.86,8.04,-6.51,-0.62,0.07,0.22,-0.27,-0.16,-7.35,-1.44,-0.07,-0.1,4.45,5.29,11.34,0
-0.88,0.08,-1.41,2.42,9.99,2.27,-0.32,-0.68,-1.28,7.05,-2.11,-1.49,0.66,-0.37,0.05,1.03,-4.97,5.48,0
-0.28,0.23,0.39,2.42,-0.75,11.06,-0.32,-0.38,0.67,2.66,2.77,6.81,-2.34,0.53,-0.55,2.98,0.89,3.53,0
0.47,1.43,0.39,-14.18,5.6,1.79,-0.47,-0.53,0.82,-8.57,11.07,7.79,0.81,-0.07,-1.6,7.38,20.91,4.51,0
1.22,-0.37,0.54,-17.11,9.5,-0.65,-0.47,1.27,0.82,-7.59,1.31,6.81,-0.69,-0.07,0.95,2.49,-4.48,-1.35,0
-0.28,-0.52,-0.06,6.81,4.13,-0.17,0.13,-0.68,-0.08,-0.76,10.09,3.88,-1.29,0.08,0.05,-3.85,5.29,-0.87,0
-1.18,-1.27,0.84,-1.97,-1.24,-9.44,-0.62,-0.68,0.97,-0.27,2.28,-6.86,0.81,-0.07,-0.1,-6.78,5.29,-3.8,0
-0.28,0.98,0.39,-0.02,8.53,32.55,1.18,-0.23,1.27,13.4,8.14,5.84,-0.69,-0.07,0.95,2.98,-1.06,-26.74,0
-0.28,0.98,1.14,19.02,31.47,17.41,1.03,0.07,0.22,-2.71,7.16,8.28,0.81,-0.07,1.7,2.49,-8.39,-40.91,0
-1.78,2.33,0.24,-6.37,13.41,40.36,-0.92,-0.98,0.07,-29.08,25.72,-11.74,0.81,0.53,1.4,85.01,-66.49,-219.62,0
1.22,0.08,-0.66,-5.39,-74.48,-369.8,0.13,-0.68,0.97,-114.53,46.72,-54.71,0.06,1.73,0.95,-289.01,68.27,328.24,0
0.77,1.28,-0.21,-6.37,-72.04,10.09,0.13,0.07,0.67,108.13,-111.98,-171.41,-0.54,0.38,0.05,9.82,83.9,468.37,0
0.32,0.08,-0.66,-54.22,54.42,78.45,-0.47,0.52,2.02,-26.15,102.38,72.24,0.51,0.98,-0.1,143.61,83.9,102.65,0
0.92,1.43,-0.36,-0.51,28.54,-5.54,-0.32,1.12,0.67,-28.1,29.14,4.86,0.51,2.03,0.65,-45.85,22.86,9.39,0
-0.13,1.58,0.99,6.33,17.31,-5.54,0.13,0.82,-0.53,-2.22,11.56,1.44,-0.09,1.13,0.05,-10.69,3.33,-3.31,0
-0.13,0.83,-1.71,6.33,20.73,30.11,-0.47,1.27,0.82,-12.97,22.3,-5.39,0.06,0.98,0.95,-21.92,16.52,6.46,0
-0.43,0.08,-0.96,9.74,12.92,-2.61,-0.47,-0.23,0.82,2.17,7.16,0.95,-0.09,0.83,0.8,-9.22,14.08,-12.58,0
0.17,1.43,0.39,14.63,21.71,-4.07,-0.47,0.22,0.07,0.71,11.56,3.4,-1.44,0.98,0.95,2.49,2.36,-11.12,0
-1.18,0.68,-0.06,15.12,15.85,-23.6,-0.62,-0.38,-0.08,12.43,16.93,-16.14,0.06,0.23,0.95,2.01,-0.57,-3.31,0
-0.43,0.83,0.24,5.84,28.06,-8.47,-0.62,0.82,0.67,1.68,15.47,2.91,0.21,0.38,0.8,7.38,0.89,-2.33,0
0.17,0.98,0.84,3.89,23.17,-32.88,-1.52,0.82,-1.28,7.05,12.05,9.25,-0.24,0.23,0.95,2.01,-6.43,-14.05,0
-0.43,0.38,-0.66,11.7,28.06,-24.09,-2.72,0.07,-0.08,10.96,-1.62,-8.32,0.21,0.83,0.8,-2.88,9.19,-20.4,0
-1.18,1.43,-0.06,7.79,38.8,-17.26,-2.12,1.27,-0.68,3.15,6.19,15.6,-0.09,0.38,0.5,5.91,-3.99,-37,0
-0.73,0.98,-0.81,-142.6,260.97,316.73,-0.92,-0.23,-0.68,-234.65,51.6,183.08,1.41,0.08,0.05,50.83,-11.32,-53.11,0
-0.28,-0.07,0.84,-294.45,57.84,-877.61,0.43,-0.53,-0.68,518.77,-1139.32,1009.68,-0.54,0.08,-0.25,1285.7,-284.75,-575.08,0
-0.73,0.23,1.59,-5.88,5.6,2.76,-0.92,-0.53,0.37,-3.69,-3.58,-2.95,0.51,-0.07,0.2,8.84,6.75,3.04,0
1.52,0.38,-0.66,9.26,10.48,4.72,-1.22,0.22,0.07,5.59,-5.04,-12.72,-0.24,-0.82,1.4,1.03,-6.92,-7.7,0
0.32,1.58,0.54,1.93,4.13,-0.17,-1.22,-0.23,-0.38,-2.22,-7,-8.81,-0.09,0.38,-0.25,-0.92,2.85,3.53,0
0.17,-0.52,-0.36,3.89,-2.71,4.72,-0.62,-0.68,-0.83,4.12,1.79,8.77,0.51,-0.07,1.4,-9.22,-18.64,9.88,0
-0.13,2.03,-0.96,-0.02,-7.59,9.11,0.43,0.52,0.07,-1.25,-1.62,7.3,-0.54,-0.37,0.05,-5.32,2.85,-4.77,0
-0.13,0.38,0.54,-6.86,-3.19,5.69,-0.02,-0.23,-0.68,2.17,1.79,-0.02,0.66,-0.37,0.5,1.52,-3.5,6.46,0
0.47,-0.07,-0.06,4.37,4.62,-7,-0.32,1.12,0.97,6.57,9.12,4.86,0.06,0.23,0.95,0.05,4.31,2.06,0
-1.33,-0.37,-0.21,-1.49,11.94,4.72,-0.32,-1.13,0.22,5.1,3.75,-11.25,0.66,-0.97,-0.25,-5.81,5.29,6.46,0
-0.43,1.28,-1.41,4.37,0.71,-8.47,-1.07,0.37,0.67,-14.92,-3.58,11.21,0.06,0.53,-0.85,16.65,4.8,8.41,0
0.77,0.08,0.54,-1.49,-1.73,8.62,-0.02,-0.23,0.07,-2.22,0.33,13.65,-0.24,-0.52,0.2,10.31,-6.92,-1.35,0
0.77,0.38,-0.21,3.89,11.94,-3.58,0.58,0.82,0.67,2.66,7.16,12.67,-0.24,0.53,-0.55,6.89,9.68,-6.24,0
-1.48,-0.07,0.84,3.89,6.57,-5.05,-0.32,-0.68,0.67,1.19,1.79,5.35,-0.24,0.98,0.95,-3.37,0.4,-4.77,0
0.92,-0.52,-0.06,-9.3,7.55,-6.03,-0.32,0.82,-0.08,6.57,6.19,3.88,-0.09,0.08,-0.7,2.49,-3.01,4.02,0
0.32,0.38,0.24,1.93,-0.26,-10.42,-0.02,-0.23,0.82,-3.2,-1.14,-19.07,0.51,-0.82,0.2,8.35,5.29,-4.77,0
0.17,0.68,0.39,2.91,1.2,-1.14,0.13,0.82,0.22,0.71,7.16,-3.93,1.71,-0.52,0.2,1.52,-7.41,-1.35,0
0.32,-0.37,0.24,2.91,2.67,5.2,0.58,0.07,-0.53,2.17,-10.9,4.37,0.66,-0.67,0.05,7.87,-4.48,-3.31,0
-0.88,0.83,-0.66,-1.49,0.22,1.3,-0.62,-0.68,-0.83,-9.55,5.21,1.44,1.41,-0.67,-0.7,-5.32,-3.01,-2.82,0
-0.28,-0.52,1.14,8.77,23.17,8.62,-0.92,0.52,0.07,0.22,7.16,6.33,-0.24,0.53,0.65,-0.92,-3.5,6.95,0
-0.43,0.08,-0.21,-6.86,-13.45,4.23,-0.47,0.22,-0.38,-7.59,10.09,-1.49,0.06,-0.52,0.2,5.42,1.87,11.34,0
0.17,-0.52,-0.06,4.37,-1.24,6.18,-0.32,0.82,-0.08,-5.64,3.26,-9.79,-0.54,-0.37,-0.25,0.54,-0.08,-1.35,0
-1.33,-0.67,-0.21,3.4,11.46,-4.07,1.33,0.07,-0.08,-11.5,-2.6,7.3,0.51,0.98,-0.85,1.52,-3.5,-6.73,0
0.32,-1.12,-0.21,0.47,-4.66,3.25,-0.92,0.22,1.27,9.98,-8.46,-1.98,-0.69,-0.07,0.95,6.4,2.85,2.55,0
1.37,0.68,-0.36,-2.95,3.64,13.51,-0.62,-1.13,1.42,3.64,-5.04,11.7,1.86,0.38,-0.7,-4.34,3.33,-5.75,0
-0.13,-1.12,0.54,-12.23,1.69,-2.61,-1.67,-0.23,0.37,6.57,14.98,-2.46,-0.09,1.13,-0.25,-1.41,3.33,4.02,0
-0.33,0.61,0.82,-0.33,3.77,-3.55,-0.52,0.36,-0.29,9.07,-2.01,0.59,0.65,-0.68,-1,7.83,-15.85,-1.87,0
1.32,-0.59,-0.08,-0.82,10.12,-9.41,-0.07,0.06,-0.59,7.12,6.29,1.56,0.65,0.37,0.05,0.02,2.71,4.48,0
0.12,0.16,-0.38,-3.26,-0.14,-8.92,0.23,-0.54,-0.14,3.7,-1.03,2.54,-1.3,-0.68,-1,3.92,7.59,-3.33,0
-0.48,0.76,-0.23,-5.21,-17.23,-4.04,-0.22,0.51,-0.44,4.68,3.85,6.44,0.5,-0.08,-0.1,0.99,-9.5,2.53,0
-0.48,-0.44,0.52,-4.24,9.14,0.84,0.38,0.06,0.16,6.14,10.2,-1.37,-0.55,-0.68,0.5,9.78,0.27,-0.4,0
-1.38,0.31,0.52,-5.21,21.83,-8.92,-0.52,-0.39,0.46,-5.58,8.25,-13.57,-0.25,1.27,-0.1,-13.65,0.76,21.57,0
1.17,-0.44,-0.38,-85.78,-4.53,-26.5,-0.67,0.21,-0.44,-13.39,27.78,-14.55,-0.25,-0.53,-0.55,-12.19,32.98,73.82,0
0.42,0.61,-0.38,201.33,29.65,20.37,-0.67,0.96,-0.44,248.33,-153.86,-37.99,-0.25,-0.08,-0.1,-38.56,46.17,65.52,0
0.27,0.01,-0.68,-21.32,3.77,24.77,-0.52,0.06,1.21,-38.78,32.17,29.88,-1.3,0.82,-0.25,-59.55,-13.4,-26.77,0
-0.18,0.76,0.52,18.23,17.44,17.44,-0.07,0.36,0.46,-12.41,13.62,29.39,0.5,-0.08,-0.1,-20.49,9.54,-1.38,0
-0.78,0.16,1.12,-5.21,22.32,-4.04,0.83,-1.44,-0.29,7.61,-0.05,4,-1.15,0.97,0.95,5.39,3.68,-9.68,0
0.27,2.26,-0.68,-0.33,14.02,-19.18,-0.07,0.36,-0.29,6.14,11.18,-0.88,-0.7,-1.28,-0.1,11.74,0.27,-7.73,0
-0.93,1.21,0.22,13.83,18.42,-22.6,0.98,0.21,0.76,1.75,-0.05,-4.79,-0.7,-0.83,-0.55,4.41,-5.1,12.29,0
-0.18,1.21,-0.23,6.02,21.83,5.24,-1.27,0.06,-0.59,10.54,-8.35,-10.64,0.5,0.22,-1.6,2.95,-1.2,9.85,0
0.12,0.91,-0.08,14.32,25.74,1.33,-0.52,-0.39,-0.29,-3.13,-2.98,-3.81,0.8,0.22,-0.55,-3.4,6.61,4.97,0
1.32,0.16,-1.28,-4.24,29.16,2.31,-0.82,0.06,0.91,6.63,-10.31,2.05,-0.1,0.07,-1,8.32,-4.13,3.99,0
-0.33,-0.59,0.37,24.09,16.46,-12.83,0.38,-0.69,0.16,12,-3.96,11.82,-0.1,0.82,-0.7,9.78,3.68,8.39,0
-0.48,0.76,0.52,21.16,15.49,1.82,0.23,-0.24,-0.14,5.65,-10.31,-14.06,0.2,0.37,0.5,4.9,-3.15,9.85,0
-1.23,1.36,-0.38,5.04,49.18,-13.32,0.23,-0.24,-0.44,-0.69,8.74,21.58,-0.25,-2.33,-0.1,5.39,-7.55,-4.31,0
-1.83,0.31,0.52,110.51,-2.58,-28.46,-0.52,-1.14,-0.59,11.03,-2.01,40.62,-0.85,-0.68,0.5,26.38,-17.8,-1.87,0
-0.48,0.01,0.22,-41.34,-16.25,-298.96,-1.42,-0.99,-0.44,-314.66,169.38,-55.08,0.05,0.97,0.95,-277.82,-167.21,-422.77,0
-0.33,-0.14,-0.08,7,-10.88,4.26,0.38,-0.39,0.91,-18.27,-14.7,53.81,1.7,0.52,0.95,135.76,-86.16,-728.92,0
0.72,0.76,2.17,9.93,6.7,-4.04,0.53,-0.54,0.31,4.68,2.88,6.44,1.7,-0.08,1.4,-8.77,0.27,-10.17,0
-0.18,-0.44,-0.98,6.02,-1.6,11.58,-1.27,0.36,-0.59,4.19,2.39,-5.76,0.8,-0.83,-0.1,-20.49,-1.2,-4.8,0
0.87,0.91,0.82,5.53,6.21,-8.44,-0.82,-1.14,0.16,-1.18,-1.52,4.49,0.65,-0.38,0.8,-2.42,-6.57,-4.8,0
1.32,0.16,-0.83,1.62,-3.07,-14.78,0.23,0.21,0.31,18.84,4.34,0.59,0.05,-0.83,0.65,1.48,6.13,-13.59,0
0.72,1.21,-0.68,4.07,8.16,4.75,0.38,0.81,0.46,-2.16,-0.05,-7.23,-0.85,0.37,0.8,1.97,2.71,-7.73,0
-0.78,-1.34,-0.38,6.02,-19.18,2.31,0.38,-0.39,-0.29,-11.92,-4.94,2.54,0.8,-0.08,-0.1,-0.47,3.68,0.09,0
0.42,0.61,1.57,-1.31,-1.11,-4.53,-0.07,0.36,-1.04,-9.97,-2.5,-3.81,0.05,-0.08,-0.55,-9.26,7.1,4.48,0
0.72,0.01,0.22,11.88,-1.11,-4.04,0.23,-0.24,1.51,2.72,6.78,-0.39,0.65,-0.68,0.5,8.81,8.57,1.06,0
0.72,-0.44,0.22,-3.75,-1.6,6.21,-0.52,-0.69,0.16,0.77,0.43,13.77,-0.55,0.37,-0.25,-3.89,2.22,3.02,0
-0.33,0.61,1.57,-9.61,-1.6,2.79,-1.72,0.81,-0.29,1.26,-3.47,7.91,-0.55,0.07,1.55,6.36,11.99,6.92,0
-0.18,0.31,-0.23,8.46,-8.93,4.26,0.23,-0.54,-0.44,-0.69,6.78,5.47,-0.7,-0.53,-0.55,0.99,-3.64,7.9,0
0.27,-1.19,0.52,9.44,-6,11.1,0.23,-0.54,-0.14,7.12,-6.89,-4.79,-0.25,0.97,-0.85,-1.45,-7.06,3.02,0
-0.93,-0.44,-0.23,1.62,-6,13.54,-0.22,-0.24,0.76,7.61,-6.4,-1.86,0.2,-0.68,-0.25,9.78,-3.15,-9.68,0
-0.88,0.38,-0.66,-0.51,-4.66,9.11,-0.32,0.37,-0.08,3.64,-6.02,-4.91,0.66,0.08,0.5,-3.37,-16.69,11.34,0
0.32,-1.12,1.44,-0.51,7.55,0.32,0.43,0.52,0.82,-9.55,-7,-9.3,-0.09,-0.67,0.5,3.96,5.29,-3.31,0
0.47,-0.07,0.39,-1.49,-5.63,-0.65,-0.32,1.12,0.67,1.68,4.72,1.44,-0.09,-0.37,1.1,2.01,-0.57,-1.84,0
-0.28,0.68,1.14,-11.74,-2.22,13.99,-0.32,0.07,-0.08,3.15,-9.93,7.79,-0.54,-0.37,0.8,-11.18,-3.01,0.6,0
0.32,0.38,-0.66,5.84,6.57,-0.17,-0.92,0.97,-0.38,0.22,-6.02,-9.79,0.06,-0.07,0.65,-3.85,-0.08,-1.35,0
0.92,0.98,-1.56,1.93,-11.98,-0.65,0.13,0.37,-0.53,0.22,4.72,-1,0.81,0.23,0.65,8.84,14.56,4.51,0
0.32,-0.37,-0.66,-0.02,5.11,7.65,0.13,0.37,0.67,1.68,2.28,-4.42,-0.24,0.98,0.2,-9.71,-3.01,0.6,0
0.17,0.23,-0.06,-1.97,-9.54,1.3,0.43,-0.23,-0.38,11.45,0.82,-0.51,0.06,1.73,0.2,-5.32,-3.99,-6.24,0
0.32,0.08,0.54,11.21,4.13,10.58,0.73,-0.53,0.07,5.1,-2.11,8.28,-0.09,-0.67,-1.75,-5.81,4.31,6.46,0
-0.28,0.23,0.84,3.4,-0.26,12.53,0.13,0.37,0.67,-2.71,-5.53,-0.02,0.06,-0.82,0.2,-0.92,1.38,4.51,0
-0.28,0.23,-0.81,-1.49,4.13,8.62,-1.22,-0.53,0.37,3.15,1.79,-5.39,-0.69,-0.82,-0.1,8.35,0.4,1.58,0
-0.13,0.83,-0.21,2.42,8.04,0.32,1.03,0.07,0.67,-4.18,2.77,-2.46,-0.09,0.83,0.8,-1.9,1.38,-1.35,0
1.52,-0.37,-0.21,1.93,3.15,-6.51,0.13,0.07,0.22,-0.76,5.21,4.37,-1.14,-0.52,-0.55,-18.5,4.8,-1.84,0
0.32,0.38,-0.21,-4.42,15.36,10.09,-0.92,-0.23,0.82,-0.27,1.79,3.88,-0.69,-0.07,0.95,-2.88,2.36,-1.35,0
-0.28,-0.07,-0.06,-8.32,-8.56,-2.61,-0.62,0.82,0.22,3.64,13.51,-2.46,0.06,-0.07,-0.1,0.05,2.36,4.99,0
0.14,-0.07,-0.49,1.88,2.6,6.88,-0.62,0.07,-0.1,-0.67,-9.01,1.84,1.33,0.82,-0.7,-2.66,-6.17,6.23,0
0.29,0.83,-0.34,-1.54,6.02,2.49,0.58,-0.38,-0.4,-0.67,-4.13,-7.44,-0.02,0.22,-0.1,10.03,-1.28,-3.05,0
-0.16,0.08,0.11,-5.45,-8.14,0.53,-0.32,1.12,-0.85,8.12,-3.15,-5.97,-0.17,-0.38,0.05,-2.18,-0.31,-9.88,0
0.44,0.68,-0.49,-3.49,-0.33,2,0.73,0.22,-0.7,3.24,-10.97,-13.79,-1.37,-0.98,-0.25,1.73,1.65,-6.95,0
0.44,-0.07,1.01,-9.35,1.14,-15.09,-0.92,0.22,0.05,-1.65,-2.18,-11.34,-0.32,-0.08,0.95,-2.18,-1.77,-5.49,0
-0.46,0.08,0.41,0.41,-0.82,-17.04,0.58,-0.38,-0.1,14.47,-10.97,-16.72,1.03,0.82,-0.7,-16.82,-3.24,38.95,0
-1.21,0.98,0.26,19.45,-5.21,3.95,0.43,-0.23,0.5,-1.65,-13.89,57.01,0.13,0.82,1.1,-50.03,26.55,38.46,0
-0.76,-0.52,-0.94,11.15,-0.33,2,-0.47,0.22,-0.7,20.33,-0.22,21.37,0.43,-0.08,0.95,-76.39,42.66,71.66,0
-0.46,0.08,-0.34,-35.72,-6.19,51.8,0.58,-1.43,0.65,-45.59,49.58,-320.43,0.43,0.22,0.2,270.77,-146.79,-417.6,0
0.44,-0.52,-0.49,2.36,66.57,5.91,-0.02,0.22,0.05,49.14,-41.24,60.92,-0.32,0.22,-0.1,-154.52,90.02,218.63,0
-1.96,-0.07,-0.19,-42.56,35.32,-2.88,-0.47,-0.53,0.05,-292.66,230.73,12.09,-0.32,0.97,0.95,-382.06,-53.04,-245.72,0
-0.31,0.98,-0.94,32.15,44.1,1.51,-3.02,-0.38,-1.6,46.69,-15.85,37.48,-1.82,0.82,1.1,136.5,7.99,76.06,0
-1.51,2.18,-0.49,18.48,25.06,-11.18,-1.52,0.82,-0.4,11.54,-3.64,7.21,-0.77,-0.53,-0.1,8.57,2.13,7.21,0
-1.21,0.68,-0.49,23.36,12.85,2,-0.62,0.82,-0.4,7.63,-12.92,23.32,-0.02,0.97,0.65,19.31,-3.24,7.21,0
-1.21,0.98,0.71,2.36,21.64,8.35,-0.92,0.97,-1,-1.65,6.12,3.79,0.13,-0.68,1.1,4.66,14.83,4.28,0
-0.91,1.28,0.41,4.32,21.16,2.49,-0.47,-0.23,-0.7,-2.13,16.38,5.26,0.58,0.82,1.55,9.06,10.92,5.74,0
-0.46,2.33,-0.34,15.55,27.01,-6.79,0.13,0.82,1.1,-0.18,-5.11,-40.64,1.63,-0.08,-0.55,-4.62,5.06,-4.02,0
0.14,0.68,-0.49,9.69,27.99,-9.23,-0.47,0.52,0.95,-4.09,9.05,-3.53,-0.62,0.07,1.1,-0.22,7.99,7.21,0
-0.76,1.43,0.26,19.45,17.74,-7.28,-1.07,0.07,0.65,8.12,7.59,13.07,0.58,0.82,0.8,3.2,10.92,-7.93,0
-0.76,0.68,-1.39,-5.45,23.6,-2.88,0.13,0.07,0.35,3.73,6.61,-3.04,-0.77,-0.08,0.65,10.03,7.02,-2.07,0
-0.16,1.28,0.11,4.32,15.78,-12.65,-1.07,-0.38,-0.1,9.1,-2.18,-8.41,-0.62,0.37,-0.25,12.47,6.53,-7.44,0
-0.31,0.23,0.71,5.78,27.99,-2.39,-0.62,0.82,-0.4,7.63,6.61,9.65,-0.17,0.07,0.8,0.75,-2.75,8.67,0
0.74,0.08,-1.09,-5.94,37.27,-1.91,-0.62,-0.68,-0.1,5.68,4.66,23.81,1.03,0.07,1.85,-19.75,27.52,11.11,0
-1.21,1.88,0.26,1.39,5.04,9.81,1.03,0.07,0.65,-2.62,8.08,29.67,1.63,0.52,0.95,-20.73,25.57,30.65,0
0.29,0.38,0.11,-16.68,-6.68,21.04,-0.02,0.52,0.5,16.42,21.75,-26.48,1.33,0.82,2.3,-25.61,35.34,32.11,0
0.14,0.23,-0.49,216.72,48.01,239.79,0.73,-0.53,1.7,60.37,32.49,332.89,-0.32,0.22,0.65,-63.7,93.44,93.63,0
1.34,0.98,-0.49,10.18,-0.33,-8.74,-0.47,-0.53,-0.7,-9.46,4.66,-3.04,0.43,-0.08,1.4,146.26,-92.59,-766.23,0
-0.31,1.43,-0.94,7.74,10.41,-5.32,-2.27,0.37,-0.4,10.56,7.59,-3.04,-1.22,0.52,-0.1,6.61,5.55,-16.23,0
-0.76,0.23,-0.19,8.71,5.04,5.91,0.13,0.07,0.35,-7.5,-0.22,5.26,-0.17,-0.68,0.05,5.15,-3.24,-5,0
0.89,0.23,-1.39,-4.96,2.11,1.51,-0.47,0.22,0.05,3.24,3.68,4.28,-0.92,-0.38,0.8,3.68,14.83,-3.05,0
-0.31,-0.07,0.26,-3.49,-4.72,-1.42,-0.32,0.07,0.65,-4.58,-2.18,-6.95,0.43,-0.08,0.2,-6.57,-6.17,5.26,0
-2.41,-0.52,-0.19,1.39,0.16,-7.77,0.58,-0.68,-0.1,2.75,-9.99,2.82,1.63,-0.83,-0.1,-1.2,-6.17,-5,0
-0.31,-0.52,0.71,0.41,0.65,2,0.13,0.07,-1.6,-11.9,6.61,8.19,-0.02,2.02,1.7,-1.2,-2.75,12.58,0
-1.81,-0.67,-0.79,-8.87,5.04,-2.88,0.43,-0.53,-0.25,-0.67,-2.18,2.33,-0.32,0.22,0.95,7.1,-11.54,5.26,0
0.74,0.83,-0.34,-1.05,7,9.81,0.73,0.22,-0.25,-3.11,-5.11,-1.58,-1.37,-0.68,-0.7,-9.5,3.6,-5.98,0
0.14,0.23,-1.39,-7.4,-12.54,18.11,1.18,-0.23,-0.7,2.26,-3.64,-3.04,0.73,-0.83,0.2,6.13,-15.44,13.56,0
0.74,-1.12,-0.34,-5.94,3.09,-1.91,-0.32,-0.38,-0.85,-1.65,4.17,2.33,-0.77,0.97,-0.55,-6.57,-0.8,-12.32,0
0.29,0.38,-0.34,-2.03,-13.02,-7.77,1.03,0.82,-1.15,5.68,4.17,-6.95,-0.02,0.22,-0.1,10.52,5.55,-0.12,0
-0.91,0.08,-0.79,3.34,-3.75,1.51,-0.32,-0.38,-0.85,3.73,1.73,3.3,-0.92,-0.98,1.1,2.71,-4.7,11.11,0
-1.21,0.23,0.26,-11.8,1.14,-6.3,0.43,0.22,-0.25,-6.04,5.64,0.86,-0.77,0.52,-0.1,-3.15,-4.7,-0.12,0
-0.16,0.08,-0.34,-6.91,-6.68,-7.77,0.13,-0.38,1.1,-9.95,1.24,-0.6,0.13,0.07,1.1,-5.59,2.62,7.7,0
0.29,0.08,-0.34,6.27,-2.77,-6.3,-0.92,0.52,-0.25,-2.13,5.15,-7.44,0.13,-0.38,0.05,6.61,-7.63,7.21,0
0.74,0.08,-0.34,6.76,-2.28,9.81,0.43,-0.23,0.05,-4.58,-11.45,17.46,-0.77,-0.53,-0.1,3.68,7.02,-3.53,0
-1.21,-1.72,-0.49,-1.05,-6.68,14.7,0.73,0.22,-0.25,3.73,-2.66,-5.97,-1.37,-0.38,0.5,0.75,-5.19,2.81,0
-0.16,1.58,0.11,0.9,7.48,-5.32,1.33,-0.38,-0.4,-3.11,-0.22,-0.6,-0.02,-1.28,-1.9,-7.06,-1.28,-10.86,0
0.29,-0.67,0.86,-6.42,-0.33,1.51,0.43,-0.23,0.95,-0.67,-2.18,5.26,-1.52,-0.08,0.65,-1.69,6.04,-3.53,0
-1.21,-0.97,0.26,-2.03,-13.02,-7.28,1.63,0.52,-0.7,6.17,-9.5,-0.11,-0.17,-0.68,1.1,-6.57,-3.73,6.23,0
1.79,0.68,1.01,-3.49,1.14,-1.42,1.03,-0.38,-1.15,-5.06,-0.22,-4.02,-2.12,-1.73,-0.25,17.36,5.06,0.86,0
0.29,0.38,0.11,-2.03,3.58,2,-0.62,-1.43,0.35,8.61,7.59,-3.04,-0.62,0.07,-0.25,2.22,-3.73,-0.12,0
0.14,-0.52,1.01,16.04,-11.07,-1.42,0.43,-0.53,-1,3.73,0.75,-18.18,0.13,0.37,0.8,6.61,0.67,-3.05,0
-0.85,-0.76,0.21,-8.01,0.47,-0.9,0.07,-0.62,-0.3,-12.64,3.86,-7.24,-0.55,0.38,0.01,3.53,-0.16,-3.41,0
0.2,0.89,-0.84,-0.68,2.42,9.84,0.07,-0.32,0.75,-2.87,6.3,0.08,-0.55,-0.67,0.76,-10.14,6.19,-1.95,0
-0.4,-0.01,-0.24,-8.5,1.45,-0.42,1.12,-0.17,1.35,-1.41,-2,17.17,-0.1,-0.37,-0.29,0.11,-4.55,-1.46,0
0.5,0.59,1.56,1.27,3.89,13.74,-0.08,0.58,0.15,3.48,-3.95,10.34,0.8,-0.07,0.61,-7.21,3.26,1.47,0
-1.15,-0.16,0.36,-2.15,-4.41,1.54,-0.38,0.13,-0.75,8.36,5.81,24.5,-0.1,1.13,-0.29,-14.05,2.29,20.03,0
0.5,0.14,1.11,19.82,0.96,33.28,-0.08,-0.92,-0.15,4.94,-22.02,79.18,-0.7,-0.52,-0.14,-1.84,7.17,-22.94,0
0.5,-0.61,1.11,17.87,-10.76,-67.8,0.07,-0.32,0.75,-14.59,-2,-64.37,0.2,-0.37,0.76,-37.97,-16.76,-141.6,0
1.4,-0.16,0.36,73.54,45.88,247.14,0.97,0.13,1.2,-25.82,63.43,-377.85,-0.1,-0.67,0.46,143.67,-133.95,-408.69,0
-0.25,-0.61,0.81,-21.68,29.77,-65.36,0.07,0.88,0.75,13.24,30.72,31.33,0.2,0.08,0.46,-107.8,60.39,-10.74,0
0.5,0.14,0.81,-34.86,17.07,-25.81,0.37,1.78,0.15,-28.26,39.51,-12.61,1.7,-0.52,0.16,-86.8,16.45,17.58,0
1.4,0.89,0.81,-24.61,10.72,-4.32,0.52,1.18,-0.3,-10.68,25.83,18.64,-1.15,-0.07,0.16,-8.19,3.75,-13.67,0
0.95,0.59,0.36,-31.45,15.61,-25.32,0.37,1.33,0.15,-2.87,18.51,-6.27,2,0.98,-0.59,-34.56,15.47,-3.9,0
0.8,-0.76,-0.24,-26.56,11.7,-29.22,0.67,-0.47,0.15,-11.66,11.18,-4.31,0.8,1.73,0.16,-5.75,10.1,0.98,0
-0.1,0.29,-0.99,-9.96,8.77,4.96,0.37,-0.17,0.15,-6.29,12.65,2.52,0.2,0.08,0.46,-2.82,10.1,-14.15,0
0.35,0.74,0.21,-18.26,6.33,-0.9,0.97,1.93,0.45,-8.73,10.7,6.43,1.1,0.83,0.46,-2.82,0.82,-16.11,0
1.55,0.74,-0.99,-8.98,16.09,-9.69,1.12,-1.67,-0.15,5.92,-0.05,1.55,1.4,-0.37,-0.29,-3.79,27.19,0.01,0
-1.15,0.14,0.81,-7.52,14.63,-4.32,0.67,0.58,1.8,-3.85,3.86,-2.36,0.2,0.38,0.01,-5.26,2.77,-6.83,0
1.4,0.14,0.81,-10.45,16.58,7.89,0.07,-0.62,-0.75,2.5,-11.76,10.34,1.4,0.08,0.46,3.04,5.7,-6.83,0
-0.4,0.74,0.51,10.55,-31.76,116.28,-0.68,0.43,-0.75,-2.38,27.3,-181.07,-0.55,0.83,0.46,-16.98,-2.11,15.14,0
1.25,-0.01,-0.69,14.45,23.91,-19.46,-0.38,0.88,0.45,2.5,-1.51,8.38,1.1,0.38,0.46,-25.28,9.12,11.73,0
-0.1,0.29,-0.24,2.25,-9.79,-47.29,-0.53,1.03,0.15,-25.82,16.07,-26.29,-0.85,0.83,-0.29,8.9,-2.6,16.12,0
-0.7,-0.16,-1.29,-127.64,-19.55,-52.17,0.37,-0.17,-0.15,-121.04,104.93,-55.09,0.5,0.98,0.16,36.73,-3.09,77.64,0
-0.1,0.29,-0.24,2.73,0.47,7.4,1.12,0.58,0.15,-7.27,-4.44,8.38,1.7,0.53,-0.89,-3.31,-4.06,2.94,0
0.5,0.14,0.81,-2.64,-8.32,-7.25,0.67,0.58,-1.35,1.04,9.72,2.03,-0.1,-0.37,0.76,-0.38,-8.46,-2.44,0
-1.3,-0.46,0.21,-7.03,-14.18,0.07,0.37,-0.47,0.15,5.92,4.84,-2.36,-0.25,-0.52,0.16,1.09,2.29,17.58,0
-0.25,-1.06,0.36,-5.57,4.38,-8.72,0.97,0.13,0.75,3.48,6.79,0.08,0.05,0.98,0.61,-7.21,1.31,-1.95,0
0.35,-1.21,0.21,-16.31,-4.9,3.49,0.67,0.28,-0.6,-6.78,2.88,-2.36,-1.3,0.38,0.46,-10.63,15.47,1.47,0
0.2,1.34,1.11,-11.91,0.96,7.4,0.37,-0.17,0.6,2.99,-10.79,2.03,0.05,-0.07,-0.14,-8.68,1.8,0.49,0
-0.25,0.59,0.81,-5.57,-3.44,4.96,0.37,-0.47,-0.6,-8.24,-9.81,3.99,-1.15,-1.27,1.36,-1.35,-4.55,-0.97,0
-0.4,0.74,-0.99,-16.31,11.7,-3.35,-0.53,-0.47,0.6,2.99,7.77,4.96,-0.25,-1.27,-0.89,7.44,1.31,-2.44,0
-0.4,-0.01,0.51,-4.59,4.38,2.51,0.97,-0.62,0.75,5.43,-1.51,-1.38,-0.55,-0.37,0.01,-0.38,6.68,4.4,0
0.35,-1.21,0.51,-2.15,3.4,7.4,0.07,1.18,0.75,4.45,-5.42,-2.85,-0.1,-0.37,-0.74,-2.82,6.19,-6.34,0
-0.4,-0.01,0.21,0.29,-12.23,-2.37,0.67,-0.17,-0.15,11.29,8.74,11.31,0.2,0.08,0.76,6.95,-3.57,-8.29,0
-0.1,-0.46,-0.24,1.76,9.75,13.26,0.37,1.78,-0.15,-3.36,8.74,-6.75,-0.25,-1.57,-1.34,-1.84,12.05,2.94,0
-0.1,-0.01,0.51,-4.1,2.91,-6.76,0.52,0.13,-0.3,8.85,-6.88,-13.1,-0.7,-0.07,0.61,-0.87,-9.92,-0.97,0
0.35,-1.21,0.51,-2.64,-6.37,2.03,0.52,1.18,1.2,-7.75,-8.35,-5.78,0.05,-0.07,-0.14,-1.35,-9.43,11.24,0
0.95,-0.61,0.36,10.55,-8.32,-6.76,-0.08,-0.47,-0.6,-8.73,-2.98,-1.87,0.8,0.53,-0.59,6.46,12.05,-1.46,0
-0.85,-0.46,0.51,6.64,1.93,-2.37,0.52,-0.32,0.45,-3.85,-0.53,-0.41,0.65,-1.42,-0.29,-8.19,-7.48,-5.36,0
-0.85,-0.76,0.96,-6.54,-12.23,-1.39,0.52,0.88,-1.05,9.34,0.93,3.5,-1.3,-0.97,1.06,4.51,13.03,-2.44,0
0.8,-0.01,-0.24,5.18,5.35,7.89,1.57,-0.17,0.6,-7.75,4.84,-5.29,-0.7,-1.27,-0.59,16.71,-4.06,3.91,0
0.8,-0.76,0.21,-4.1,-3.93,6.42,0.07,-0.62,-1.05,-1.89,-2,4.48,1.1,0.38,-0.29,5.97,-4.55,1.96,0
0.2,-1.36,-0.39,11.52,14.63,3,0.52,0.13,0.75,-3.85,5.81,-9.68,0.05,0.23,0.16,-3.79,5.21,-11.22,0
0.5,0.59,-0.09,-5.57,0.47,6.42,-1.13,0.88,-0.75,-0.92,-8.83,-3.34,1.7,0.23,0.16,-6.24,-0.64,3.91,0
-0.4,0.29,-0.99,9.08,-9.3,6.42,1.12,-0.47,1.05,-1.41,5.81,-1.38,0.5,-0.52,0.91,0.6,3.75,-2.44,0
0.35,-0.01,0.51,-1.17,8.28,4.47,-0.38,0.88,0,-1.89,2.88,-3.34,0.2,-0.97,-0.29,0.11,-2.6,1.96,0
0.8,-0.76,2.16,-0.68,15.61,0.56,-0.38,0.43,0,10.31,-4.93,0.57,-0.55,1.13,-0.74,-4.28,-2.11,-5.85,0
0.2,0.89,0.36,-6.54,4.86,-1.88,-0.53,0.58,-1.35,-5.8,7.28,3.01,0.5,-0.07,0.61,-5.26,7.17,0.01,0
-0.1,-0.76,-0.24,7.13,1.45,1.05,-0.98,-0.47,1.35,2.01,-3.95,-7.24,-0.1,0.38,0.46,-4.28,9.61,6.35,0
1.25,-1.21,0.51,0.78,-11.25,1.54,-0.53,-0.17,0.6,13.24,-8.83,2.52,1.1,-0.37,1.06,6.46,0.33,4.4,0
0.95,-0.61,1.11,10.06,-12.23,-1.88,1.12,-0.47,-0.15,3.48,13.63,-1.87,0.05,0.23,0.91,-1.35,8.14,9.77,0
-1.39,0.75,0.19,18.15,0.5,1.93,-0.53,-0.22,0.45,0.13,2.17,2.5,-0.12,0.2,0.44,0.24,5.69,-10.89,0
-0.49,-0.75,-0.26,-8.7,15.64,3.89,1.12,-0.52,1.2,12.82,-1.73,-10.69,-0.12,-1.15,0.74,6.59,-1.63,13.52,0
-0.49,-0.45,0.94,10.34,-6.33,-4.42,-0.68,0.38,-0.9,0.13,0.22,3.96,-0.57,-0.85,1.04,-2.69,3.74,11.57,0
-0.34,-1.05,0.34,6.92,-10.24,8.77,1.72,-1.87,0.3,-6.71,5.1,2.01,-0.72,-1,0.14,-17.34,4.72,2.78,0
0.11,-0.15,-0.41,3.5,0.01,6.33,-0.08,-0.37,0.3,-0.36,5.1,4.45,-1.32,-1.6,1.04,-3.18,-5.54,8.15,0
0.26,-0.75,0.49,-5.28,-8.29,3.89,-0.38,-0.67,0.6,11.36,-16.87,9.33,-0.87,-1.15,-0.31,-7.08,14.97,4.24,0
-0.79,-1.05,-0.11,9.36,-4.87,3.4,1.12,-0.52,0.45,5.99,-5.15,4.45,1.23,-0.25,0.14,0.73,3.74,-7.96,0
-0.34,-0.6,-0.41,14.73,1.48,5.35,-0.53,-0.22,0.9,26.98,-25.66,54.74,-0.12,-1.15,1.04,-8.55,3.25,23.77,0
0.41,-0.6,-0.41,33.29,37.61,62.48,1.12,-0.52,0,29.91,-28.59,10.8,0.18,-0.55,-0.31,-42.24,5.21,-29.45,0
0.26,-1.2,0.19,23.52,-28.79,100.08,-0.38,0.08,0.6,-102.41,97.88,-170.84,1.08,0.2,0.44,165.77,-149.09,-446.44,0
-0.19,0.3,-0.71,148.04,71.79,92.26,0.52,-0.37,-0.45,-26.73,95.44,7.38,0.63,0.2,1.04,-518.8,222,200.53,0
-0.94,0.75,-0.26,-143.47,-12.68,-499.53,1.12,0.53,0,-184.44,67.12,-101.02,-0.27,0.05,-1.36,460.69,-34.83,218.6,0
-0.19,1.5,-0.26,12.78,28.33,-2.95,0.37,-0.22,0.9,-25.75,9.01,3.96,-0.12,-0.1,0.44,-18.31,-29.46,-35.31,0
-1.54,0.15,-0.11,-0.89,29.31,-9.3,0.07,0.38,-0.45,-1.34,-1.24,9.82,0.78,-0.25,0.14,24.65,1.79,-3.08,0
0.26,0.75,0.49,14.25,19.06,-0.51,-0.53,1.28,1.2,12.33,8.52,5.43,-1.47,-0.25,-0.16,1.7,-3.58,14.5,0
-0.94,1.2,-0.71,4.48,33.71,7.79,0.07,0.08,1.05,3.54,-6.61,2.01,0.03,0.05,-1.66,7.08,1.79,-5.03,0
-0.34,0.9,-0.41,14.73,10.27,-11.25,0.52,1.13,-0.9,-7.69,2.17,10.31,-0.12,-0.1,-0.01,-16.85,12.53,10.59,0
0.86,0.15,-1.61,14.73,26.38,-7.35,0.52,0.08,1.05,11.85,2.17,-2.38,-0.72,0.05,0.14,5.61,10.09,-8.94,0
-0.34,0.9,-0.11,10.34,13.69,-7.35,0.37,0.23,1.2,10.38,1.2,-2.87,-0.87,-0.85,-1.06,29.54,-2.12,5.22,0
-2.29,0.3,0.19,21.08,28.82,0.96,-0.53,1.28,0.45,14.78,-11.5,-9.22,-1.32,-1.15,-1.06,10.98,-1.63,-4.06,0
-1.39,1.95,-0.26,18.64,20.52,-2.95,-0.68,0.83,-0.15,23.08,-13.94,-6.78,-0.57,-1.15,-1.81,-6.6,8.62,8.64,0
-0.34,0.6,0.34,13.76,34.19,30.74,-0.98,0.23,-0.75,12.82,-7.1,-0.92,-1.32,-0.85,-1.06,8.54,0.32,6.2,0
-0.49,2.25,-2.21,14.73,37.12,-10.76,-1.13,1.13,-0.9,18.19,-7.59,47.42,-1.92,0.05,0.14,5.12,8.14,5.71,0
-0.94,0.75,-0.71,-38,37.12,-276.88,-1.88,0.38,-0.15,-20.38,14.38,-230.41,-0.72,-1.45,0.14,-25.15,15.95,99.46,0
-2.44,-2.1,-0.41,-1971.59,1862.75,995.52,-1.58,-1.42,-1.65,-670.28,749.73,-1263.13,-0.87,-0.1,-2.26,-81.79,593.59,1092.07,0
0.41,-0.6,0.34,-99.52,61.54,896.46,0.97,0.08,-0.45,-230.83,-180.44,940.97,-0.12,-1.6,-0.01,783.44,81.87,295.75,0
-0.34,0.6,-0.11,19.62,13.69,258.28,-0.68,0.83,-0.45,32.84,-50.07,101.62,-0.57,-0.55,-1.06,47.6,-48.5,-130.03,0
-0.34,0.6,-2.06,-6.26,8.32,0.96,-0.68,-0.37,0.6,-5.24,-7.59,-2.38,-0.57,-1.6,-0.31,-3.67,4.23,1.31,0
-0.34,0.15,0.34,2.04,8.8,2.91,0.52,0.08,1.35,-6.22,7.06,7.87,-0.87,0.2,-0.31,-2.2,-3.09,2.78,0
0.86,0.15,1.54,2.04,-2.92,3.89,1.27,0.83,1.05,6.47,-5.15,-11.17,0.03,0.05,0.14,4.63,10.09,2.29,0
-0.19,1.5,0.19,-4.8,7.34,1.93,-0.08,-0.22,0.45,5.99,8.52,-0.92,1.08,0.2,-0.31,-1.71,-2.12,5.22,0
1.31,-0.15,0.79,-7.24,5.87,4.37,-0.53,0.23,0.45,0.62,-10.03,17.64,-0.72,0.05,-0.61,5.12,4.23,0.82,0
-0.94,0,0.49,-0.4,-5.84,0.96,0.52,-0.67,0.6,-2.31,1.69,-9.22,0.63,0.2,-0.31,-1.71,4.72,-13.34,0
2.51,0.15,-0.41,-14.56,-5.84,-1.97,0.67,0.23,0,3.06,8.03,13.73,-0.57,-0.55,-0.01,-1.22,9.6,-4.55,0
0.11,0.9,0.79,6.92,-5.36,3.89,-0.98,-1.27,0.45,-1.34,1.2,2.01,0.78,-0.25,-0.91,5.61,-0.16,10.1,0
-0.49,-0.75,-0.26,7.9,14.66,1.93,-0.53,-0.22,-0.3,9.89,-10.52,-3.36,-1.77,-0.1,0.44,6.1,4.72,2.78,0
0.41,0.6,-1.31,2.53,-0.47,-5.39,-0.08,-0.22,-1.05,-7.2,-3.68,-7.76,-0.12,-1.15,-0.31,10.01,1.3,1.31,0
-0.94,0.3,0.19,-4.31,-6.82,-0.02,-0.68,0.08,0.3,0.62,1.69,-8.73,-0.12,-0.55,-0.01,7.56,-1.63,6.68,0
-0.94,0.3,-0.26,7.9,-0.96,-5.39,-0.53,0.98,0.45,-0.85,-5.64,7.87,-0.12,0.65,-0.31,5.61,0.81,1.8,0
0.11,-1.35,0.34,-6.26,-0.47,7.3,0.67,-0.22,-0.75,5.99,0.71,6.89,-0.27,0.8,0.14,7.08,5.69,1.31,0
0.41,-0.15,0.34,4.48,-6.82,-2.95,-1.58,0.08,0.3,1.1,9.99,-2.38,-0.27,-0.25,0.59,-4.64,12.53,6.2,0
-0.34,-0.15,0.34,3.02,6.85,1.93,0.07,1.13,-0.15,6.96,-5.64,-3.85,0.03,-0.25,-0.16,6.1,8.62,-1.62,0
-0.79,-1.05,-0.11,-4.31,10.76,-5.39,1.12,-1.27,-1.05,2.08,-9.54,-4.83,0.78,-1,1.34,-0.74,2.77,-5.03,0
-1.24,-0.6,0.79,-5.28,3.92,0.47,-0.38,0.83,0.3,-8.66,4.62,-2.87,-0.27,0.35,0.14,-0.25,-4.07,10.59,0
0.11,0.6,-0.11,-13.1,-8.29,-0.02,-0.98,-0.97,-0.3,-4.76,-1.73,-0.43,0.18,-0.1,-0.01,2.68,-3.09,3.27,0
0.26,0.3,-0.26,-7.73,-4.87,6.81,-0.38,-0.37,0.3,0.62,-0.76,-3.85,0.48,-1,-0.61,-1.71,-7,-1.62,0
0.41,0.15,0.34,0.57,-6.33,-6.86,0.07,-0.37,0.3,-3.29,-1.24,-1.41,-1.32,-0.85,-0.01,-5.62,-3.09,5.22,0
0.86,0.9,0.34,-15.54,9.78,-0.51,-0.68,0.08,-0.45,8.43,-5.15,-4.34,0.78,-0.25,0.59,-4.15,-2.12,5.22,0
0.26,-0.75,0.94,-0.89,-3.4,1.93,-0.68,0.38,1.05,6.47,11.45,1.52,-0.27,0.05,-0.16,-0.74,-6.51,7.17,0
-0.34,0.15,-0.41,-9.19,-1.45,2.91,-0.08,-0.22,1.2,-2.31,-11.99,0.55,0.78,0.05,0.14,8.54,1.3,-4.06,0
-0.82,0.22,-1.41,99.27,34.37,-31.47,-1.63,-0.87,-1.48,195.59,-68.67,-3.87,-0.62,1.46,0.72,227.59,93.01,88.52,0
-0.22,-0.38,-0.36,38.72,0.68,-2.66,-0.73,0.48,-1.18,36.41,-7.63,15.66,-0.02,0.56,1.02,46.92,14.89,14.3,0
-3.07,1.57,-0.81,30.91,19.23,3.2,-2.23,0.48,-1.03,27.62,0.67,-21.45,0.13,0.41,0.42,33.25,2.19,28.95,0
-1.27,0.52,-0.21,23.1,5.07,-19.75,-1.93,-0.72,-2.38,0.28,-5.19,-2.4,-0.62,-0.34,1.17,12.25,26.12,17.72,0
-0.97,0.67,-1.86,33.35,10.44,6.62,-1.48,-0.27,-1.18,13.46,-8.61,-7.29,-0.77,0.26,1.32,23.48,14.4,25.05,0
-0.97,0.37,0.09,-11.08,25.58,42.75,-1.93,0.48,-0.43,23.23,2.13,-5.33,1.03,-0.34,1.47,0.05,1.71,2.59,0
-2.02,1.27,-0.21,-14.99,29,39.33,-2.23,0.78,-0.43,2.72,-7.63,28.36,-0.92,-0.04,-0.33,-13.14,61.28,25.54,0
-0.97,0.37,-1.11,0.63,23.14,-20.73,-0.43,0.18,0.02,13.95,12.88,5.9,-1.22,0.26,-0.18,38.13,18.31,-2.3,0
-1.57,0.97,0.69,26.51,13.86,7.11,-2.23,-1.02,-1.63,18.83,-1.28,4.92,-1.82,-0.04,-1.08,14.69,-4.64,1.12,0
-2.02,0.52,-0.96,13.82,16.3,-3.15,-1.33,0.18,-1.03,3.7,-9.58,-0.94,-0.02,0.26,1.32,9.81,0.24,11.86,0
0.68,0.37,0.84,8.45,29.49,-27.07,-1.48,0.03,-0.88,23.23,-5.19,16.64,-1.22,0.86,-0.18,4.44,-1.71,19.68,0
-0.52,-0.38,0.69,21.63,12.4,7.59,0.02,-0.87,-0.73,-3.63,-4.21,-73.69,0.13,0.41,-0.63,29.83,20.75,8.93,0
-0.97,1.57,0.09,-122.9,-70.61,-294.65,-0.88,-0.57,-1.03,-56.85,212.58,-436.97,-1.52,0.56,-0.48,236.37,49.56,17.72,0
-0.52,-0.38,-0.36,7.96,-10.55,-12.43,-0.28,-0.72,0.32,10.04,-15.93,-13.63,0.13,-0.04,0.42,-8.74,-46.15,-143.41,0
-0.52,0.67,0.09,15.28,-5.18,8.08,0.02,-1.32,0.47,20.3,-16.42,6.39,0.13,-0.64,0.42,17.14,1.22,20.16,0
-0.82,0.97,-0.96,8.94,-6.65,7.11,0.32,-0.12,0.02,9.07,-15.44,-1.91,-1.82,0.41,0.42,21.53,-10.01,-5.71,0
-2.62,-0.08,0.09,16.26,-9.09,19.31,-0.73,-0.27,-0.13,11.02,-17.89,13.22,-0.77,-0.49,1.02,-4.35,-7.08,-0.34,0
0.38,-1.43,-0.51,13.82,1.17,5.64,0.32,0.63,-0.73,11.51,-16.42,24.45,-0.02,0.56,-0.93,2,-3.18,21.63,0
0.23,0.37,-0.81,47.51,-8.6,20.29,-0.43,-0.87,1.67,11.02,-7.14,-1.91,-0.62,0.41,0.42,-1.42,-11.48,-13.04,0
0.08,-1.43,-0.21,-6.2,-2.74,-26.59,1.37,0.03,-0.88,-45.13,21.67,105.02,-0.77,-0.49,1.02,-123.98,24.17,84.62,0
-0.22,-1.58,0.09,-342.63,-54.5,171.17,-0.43,-1.32,-1.03,-188.69,179.38,-323.2,-1.22,0.26,0.57,-224.56,197.99,195.95,0
-0.37,0.52,0.24,-9.13,6.05,-11.45,-0.88,0.93,0.02,-5.09,-1.28,1.02,-0.32,0.56,-0.18,31.3,17.33,83.64,0
-1.27,-1.73,-0.21,-4.74,-5.18,7.59,0.02,0.18,-0.28,9.07,11.41,-9.24,-1.22,0.56,-0.48,-3.37,-5.62,-13.04,0
-0.97,-0.38,0.39,6.49,-2.74,0.76,0.02,-0.12,0.02,9.07,-5.68,-12.66,1.33,-0.04,-0.33,1.51,-9.04,0.63,0
0.68,-0.83,0.09,6.49,-1.76,-4.61,2.12,-0.72,0.32,-6.56,1.16,-7.77,0.43,-0.94,-0.48,-2.4,3.66,-16.46,0
-0.97,-0.08,0.09,-12.06,-1.76,0.27,0.77,-0.12,0.02,0.77,6.04,2.97,0.13,-0.04,2.22,-0.93,5.61,3.07,0
-0.82,0.97,0.69,-5.71,1.66,4.18,-0.88,0.18,-0.73,-19.25,5.55,-9.24,-0.77,-0.19,-0.18,13.23,2.19,1.61,0
0.23,-0.08,0.39,5.03,7.03,6.13,0.77,-0.12,-0.28,-10.46,5.55,0.04,-0.77,-0.94,-0.48,-3.37,6.1,-6.2,0
0.68,-0.38,-0.36,1.61,1.17,-7.05,0.92,-0.27,-0.43,-5.58,9.46,-7.77,-1.37,-0.04,-0.33,4.93,-5.62,1.12,0
0.38,0.52,-0.51,1.12,-0.79,-0.71,0.02,0.93,-0.28,-3.14,-2.26,-5.82,0.13,0.41,0.12,-6.3,-1.22,2.1,0
-0.82,-0.68,0.24,6.49,4.1,-6.57,0.32,0.63,-0.28,1.74,-11.05,-7.77,1.18,0.86,0.27,3.46,2.68,-2.3,0
0.23,1.12,-1.56,-14.5,-6.65,1.74,0.17,-0.27,-0.43,-6.56,1.65,-15.1,0.58,-0.04,0.12,7.86,-3.18,-4.25,0
-0.37,-0.23,-0.96,6.49,-9.58,3.2,-0.43,-0.12,0.02,4.67,4.09,4.92,0.43,0.26,0.27,0.05,5.61,-11.09,0
-1.27,0.97,0.99,-3.27,-3.72,9.06,-0.28,-0.27,0.32,-0.7,2.62,-19,0.73,-1.69,-0.48,-2.88,-5.13,-3.76,0
0.23,-1.28,0.09,-14.5,5.07,-7.05,1.97,0.63,-0.73,3.21,0.18,-14.61,0.13,-0.04,-0.33,-0.44,12.45,1.12,0
0.08,-0.68,0.24,-8.15,3.61,7.59,0.62,0.03,0.32,13.46,2.62,-0.45,0.13,-0.64,0.12,0.05,-3.18,0.63,0
0.08,-0.23,-0.21,0.15,-4.2,-7.54,0.17,-0.72,0.62,-1.19,-3.24,-8.26,0.13,-1.09,0.72,-0.93,1.71,4.54,0
0.08,-0.23,0.24,-8.15,2.63,-1.19,1.97,0.63,0.02,-14.86,0.67,2.48,-0.92,-0.64,1.17,7.86,1.71,-4.25,0
-0.37,-0.68,-0.51,-5.22,-3.72,-1.68,1.22,0.63,0.47,-1.19,8.48,0.04,0.13,1.46,0.72,2.98,-4.64,3.07,0
-0.52,0.37,0.09,-3.76,-3.72,2.71,-1.63,-0.12,0.92,-11.93,2.13,2.97,0.13,0.71,-0.33,5.42,13.91,-12.06,0
-0.52,1.12,0.84,-7.67,-15.43,2.71,0.17,-0.27,-0.43,-4.6,-1.77,6.87,-0.17,-0.04,-0.33,-3.86,7.08,-2.3,0
1.28,-0.23,0.24,3.56,5.56,-1.68,0.02,-0.87,0.92,0.77,-6.66,5.9,-0.32,-0.94,-0.18,10.3,-5.62,-9.13,0
1.43,-0.08,-0.36,3.56,-2.74,5.15,0.77,-0.57,-0.28,8.09,8.48,-0.45,-1.22,0.26,-0.18,-14.6,-2.69,8.93,0
-0.97,-0.08,0.39,12.84,-0.3,-5.1,-1.03,0.48,0.32,2.23,-6.17,1.02,-0.17,-0.04,-0.33,2.49,8.05,1.61,0
-0.22,0.67,0.09,1.12,3.12,1.25,-1.03,0.03,-0.43,-3.14,7.5,-0.94,-0.32,-0.94,1.32,8.35,5.12,3.07,0
-0.97,-0.38,-0.81,10.89,-0.79,4.66,0.17,-1.02,0.62,-4.12,-10.07,-6.31,-0.17,-0.34,1.17,4.44,4.64,-1.32,0
1.73,-0.68,-0.51,16.26,-9.09,-2.66,0.17,-0.27,-0.43,-6.07,2.13,-1.91,-0.17,-0.04,0.42,2.49,-6.6,-1.32,0
0.38,0.22,0.69,4.05,6.54,-2.66,-0.43,0.63,-0.73,6.14,-0.31,-3.38,0.43,0.26,0.27,5.42,4.15,0.14,0
-0.52,-0.38,0.09,2.59,-5.18,1.25,-0.73,-0.27,-0.43,-6.07,-2.75,-5.82,-0.02,0.26,1.77,-8.74,-0.25,-2.78,0
-0.97,0.37,-1.11,-2.29,-5.67,12.97,0.77,-0.57,-0.28,10.04,8.48,3.46,-0.62,0.41,0.72,-1.42,-1.71,-1.81,0
-0.08,0.2,0.45,2.06,-1.89,0.94,-0.54,-0.37,-0.84,13.68,-7.68,8.45,-1.15,0.73,-0.94,2.08,-1.52,-6.26,0
0.37,0.95,0.15,4.5,-0.91,-5.41,0.66,-0.67,-1.29,0.01,0.14,10.89,-0.55,-0.92,0.41,10.38,8.24,1.07,0
-1.88,0.05,0.3,-2.33,6.41,-4.44,-1.14,0.98,-0.69,6.35,5.02,4.05,-0.55,-0.92,-0.34,-0.36,1.41,1.07,0
0.52,0.5,0.3,13.29,-3.84,2.4,-0.84,0.23,0.51,4.89,2.09,5.03,-2.05,-0.17,0.11,-1.83,7.27,-2.84,0
0.37,-1,0.9,23.06,-2.87,-11.27,0.66,-0.67,0.21,2.45,-6.21,49.46,0.05,1.48,0.56,-12.08,10.69,11.32,0
0.22,-1.15,-0.9,-17.47,-15.07,-7.85,-0.39,-0.82,-0.69,-1.95,-1.33,-34.03,0.8,0.43,-0.49,-31.61,18.5,44.04,0
-1.13,0.05,-0.15,-30.16,51.33,109.82,0.21,0.83,-1.29,22.47,-50.65,172.02,-0.25,-1.52,-0.49,59.21,16.06,80.17,0
-1.43,-0.7,-0.45,-21.86,-22.4,-58.63,0.06,0.23,0.51,-31.73,13.81,-19.87,0.05,0.73,0.56,202.76,-110.9,-410.07,0
-0.83,0.65,-0.3,-102.43,-101.5,210.41,0.06,0.23,0.81,97.17,-66.76,23.1,-1.45,0.73,-0.19,237.92,55.61,-30.67,0
-0.83,0.65,-0.75,-139.05,363.83,994.04,-1.14,-0.82,-0.99,125.01,-156.11,-42.33,-1.75,-0.47,-1.09,901.98,48.77,509.86,0
-1.43,1.55,-0.9,-40.91,111.88,148.4,-2.19,0.38,-2.34,-140.62,104.14,-56.98,-2.05,-1.22,-1.39,-123.41,26.31,-79.99,0
-1.28,0.2,0.15,-2.82,24.48,34.63,-3.24,0.68,-1.44,0.49,23.57,5.03,-4,-0.17,-2.89,-12.08,8.73,-19.93,0
-1.13,0.5,-1.35,31.85,6.9,6.31,-2.94,-0.37,-1.29,-6.34,4.04,1.61,-3.4,-1.07,-3.04,-19.9,-14.22,-17,0
-1.73,-0.1,0.15,30.87,13.25,-8.34,-1.74,-0.37,-2.34,21,-12.56,-10.11,-3.25,-0.92,-2.89,26,10.2,-3.82,0
-1.28,0.65,-1.5,42.59,3.48,-9.81,-2.34,-0.07,-1.89,18.07,-14.03,-8.64,-2.65,-0.02,-2.74,6.96,-3.47,2.53,0
-1.88,0.5,-0.15,35.27,7.39,-8.83,-2.64,-1.12,-2.04,23.93,-16.95,-19.87,-1.75,-0.17,-2.89,37.23,11.17,10.83,0
-0.68,0.05,-1.35,40.15,1.04,-1.99,-2.19,0.08,-0.54,42.49,-12.56,-42.33,-2.35,-1.07,-3.49,41.14,-9.33,6.93,0
-0.38,-0.55,-1.05,33.8,5.92,11.68,-2.34,0.23,-2.19,13.68,-10.61,4.05,-4.6,-0.32,-2.29,25.52,24.36,20.11,0
-1.43,0.05,-0.45,43.57,13.25,-0.53,-3.54,0.23,-1.89,39.56,-36.97,-16.94,-2.65,0.43,-1.99,23.56,8.24,20.11,0
-2.33,0.5,-0.45,44.05,17.64,-21.04,-3.54,-0.07,-2.94,21,-28.19,32.86,-3.1,-0.02,-3.79,33.33,-6.4,28.9,0
-1.73,-0.55,-0.3,214.95,7.87,97.62,-3.24,-1.57,-1.44,236.33,-66.76,-116.06,-2.8,-1.22,-2.14,4.52,-66.46,-36.53,0
-2.48,-0.1,-0.3,-113.66,-129.33,-1251.02,-1.74,-0.67,-1.59,-2014.15,365.37,1010.83,-1.9,-1.07,-1.69,299.93,118.11,390.23,0
-0.23,0.5,-0.45,-165.42,-26.79,442.83,-0.84,-0.07,-0.69,-9.76,200.33,-851.9,-1.3,-1.22,-0.64,1231.08,-321.83,-1831.94,0
-1.28,-1.3,-0.75,0.6,10.32,-10.29,-0.39,-0.52,0.51,8.8,67.03,-78.96,-0.1,0.58,0.71,-204.95,322.21,646.58,0
0.37,0.2,0.45,0.6,-9.7,-6.39,-0.39,-0.07,0.06,2.45,4.53,4.05,0.65,0.13,0.71,2.57,5.8,-1.86,0
0.22,1.25,-0.15,1.09,-6.29,3.87,-0.84,-0.07,0.81,-7.32,-5.24,4.54,-0.25,-0.77,-0.19,-9.64,1.9,6.93,0
1.27,-1,-0.75,2.06,6.9,5.82,0.66,-0.37,0.21,1.47,-5.72,5.03,0.5,-0.77,0.26,-6.22,1.41,-4.79,0
-1.28,-0.1,0.45,-1.36,11.78,-7.85,0.66,0.08,0.66,-8.78,9.41,13.33,-0.7,0.43,1.31,6.96,-10.31,0.09,0
0.22,0.05,1.05,4.5,-1.89,6.8,-0.84,-0.07,0.81,-16.11,1.6,2.1,0.2,-0.17,0.71,5.01,-1.52,-0.89,0
-0.38,0.2,0.45,2.55,-5.31,-2.97,0.21,0.83,-0.84,-16.6,13.32,-8.64,-0.55,0.58,-0.34,-6.22,2.87,-11.14,0
-0.38,0.65,0.15,-0.38,8.36,3.87,-1.59,-0.07,-0.24,-13.18,3.55,-5.23,0.05,-0.02,1.01,-7.69,-4.94,11.32,0
-1.13,0.05,-0.9,-2.82,-7.75,-1.02,0.51,-0.07,0.06,-0.48,7.95,4.05,-0.55,0.13,0.71,-6.22,-9.82,10.35,0
0.22,0.5,-1.35,-8.68,-0.43,1.42,0.81,0.23,-0.69,14.65,5.99,9.91,1.7,-0.02,0.56,3.54,-0.55,9.86,0
-0.38,-0.1,-1.05,0.6,3.97,2.4,-0.09,-0.67,-0.54,12.7,-1.82,12.84,-2.35,0.43,0.56,2.08,8.24,2.04,0
-0.08,0.2,0.15,5.97,5.92,-1.02,-1.44,0.38,-0.09,-3.41,2.58,-0.83,-1.15,-1.07,0.56,0.61,11.66,3.51,0
-1.13,0.8,1.05,8.9,-1.4,10.21,-1.44,1.58,0.21,-0.97,-2.31,8.45,0.2,-0.17,1.16,13.31,-6.89,-2.35,0
0.37,-0.55,0.45,4.99,6.41,1.42,0.06,-0.07,-0.99,-3.9,4.53,3.56,0.2,0.88,0.41,2.57,-3.47,-0.89,0
-1.28,0.2,-0.75,-5.26,0.06,10.21,-0.84,-0.07,0.51,0.49,-5.72,6.49,-0.85,0.13,1.16,4.03,-1.52,-7.72,0
0.52,-0.4,-0.9,-5.26,9.83,1.91,-0.39,-0.82,0.06,-3.41,6.48,9.91,-0.25,-0.77,0.56,-4.27,3.85,3.51,0
-0.08,0.2,0.9,-3.8,2.01,0.94,-0.99,-0.37,1.11,1.47,-8.17,9.42,1.25,0.73,0.56,-7.2,-1.52,5.46,0
-0.38,-0.1,-0.3,-12.59,-0.91,-3.46,0.66,-0.67,-0.54,-14.64,3.55,2.59,0.2,0.13,0.41,-0.36,-8.85,-2.35,0
-0.08,-0.55,0.45,1.09,3.97,-6.88,0.51,-0.52,0.51,-3.9,-6.21,1.61,-0.25,-0.32,1.01,0.61,2.38,0.58,0
-1.28,-0.1,0.15,-7.7,1.04,-12.74,0.21,-0.37,-0.54,5.87,3.06,-1.32,-1.15,-0.02,-1.24,-6.71,-10.31,-2.84,0
0.37,0.65,0.15,5.48,-2.38,-9.81,0.06,1.43,1.26,5.38,4.04,6.01,0.2,0.13,0.71,-1.34,-7.38,2.04,0
-1.13,-0.4,0.75,1.57,-4.33,-2.97,0.21,-0.67,-0.09,0.01,-9.63,7.47,0.05,-0.02,-0.49,-11.11,6.78,-2.35,0
-1.28,0.2,-0.3,1.57,-3.84,0.45,-0.54,0.08,-0.54,-0.97,-14.51,1.61,1.25,-0.32,0.26,0.12,0.92,-9.19,0
0.37,-1,0.9,-8.19,-12.63,8.26,-0.84,0.98,1.26,-2.43,11.85,0.63,0.5,-0.77,-1.24,9.4,4.34,-9.67,0
-1.73,-0.55,-0.3,13.29,1.04,-1.02,0.81,-0.07,0.81,-2.43,-14.03,5.03,0.05,-0.02,-0.94,-1.83,1.41,-5.77,0
-0.38,0.2,0.15,-14.05,-11.66,-8.83,-1.14,1.43,-0.99,-1.95,0.14,-5.23,-0.25,-0.02,0.26,-0.85,-2.5,4.49,0
0.82,-0.1,0.45,3.53,6.9,12.65,-1.44,0.38,0.21,-0.48,0.14,2.59,-1.3,-0.17,0.41,5.98,2.87,1.56,0
-0.45,1.62,0.33,0.26,-3.08,0.13,-0.87,1.21,0.27,-1.62,-5.2,-0.57,0.28,0.99,0.22,10.98,3.84,3.22,0
-0.6,1.92,-0.27,5.63,-3.57,-0.36,-0.72,0.76,0.12,3.26,-7.16,-3.01,-0.02,1.74,-0.53,-13.44,-5.93,4.2,0
0.45,0.57,-1.32,8.07,-1.13,5.01,-1.32,-0.29,0.72,-2.11,5.05,3.34,0.28,0.99,1.72,9.03,1.4,9.08,0
0,1.62,-0.42,3.68,-9.43,-0.36,-0.27,1.81,0.57,3.26,5.54,-4.47,0.13,1.14,0.07,-1.72,5.3,-7.03,0
-1.05,-0.03,0.48,5.63,-4.55,0.61,-0.27,1.51,-0.63,-2.11,5.05,7.25,-0.32,0.09,-0.38,-16.85,2.37,-4.59,0
-0.45,0.12,-0.42,-5.6,17.91,5.01,-0.87,1.66,-0.03,-2.11,-1.3,11.15,-0.62,0.84,0.37,-9.53,-3,-5.08,0
0,0.87,-0.12,-7.56,8.15,17.7,-1.32,1.21,-0.48,-9.93,0.66,9.2,-0.02,1.29,0.97,19.28,2.86,-11.92,0
0.15,0.72,-0.27,20.28,11.56,-18.43,-2.07,1.21,0.72,65.76,-36.45,25.31,0.28,-0.51,-0.23,60.3,-27.41,-3.13,0
-1.2,1.62,0.33,29.55,42.33,90.46,-1.62,0.46,-1.23,-80.24,15.3,-159.75,-0.32,0.39,0.07,-4.16,-139.72,-262.41,0
-0.15,1.92,0.48,156.02,20.84,402.96,0.03,-1.79,1.47,264.98,-363.11,511.64,0.73,1.74,1.27,-55.92,101.98,177.54,0
-0.45,0.57,-0.42,-258.04,-110.99,-114.13,-0.27,-0.44,0.12,-132,10.42,-395.59,-1.67,-0.81,0.52,344.47,-204.66,-14.85,0
-0.15,-0.93,0.18,304.94,115.08,-8.18,0.33,-1.34,-0.78,63.32,196.94,-35.72,-2.87,-0.81,-0.53,-329.35,-35.22,-234.09,0
-0.9,-2.28,-0.42,20.76,-13.34,-2.32,0.18,-2.24,-0.93,11.56,-10.57,1.87,0.13,-2.46,0.37,-14.9,5.79,-8.01,0
-0.9,-2.28,-0.87,5.63,-12.85,5.5,-0.42,-1.34,-0.03,5.21,-22.29,-2.52,-0.62,0.84,0.37,14.4,-15.69,21.29,0
0,-1.38,0.33,11,-16.27,5.98,0.18,-1.49,-0.93,-1.62,-22.78,-5.45,-0.47,-0.81,0.22,4.63,-4.46,6.64,0
0,-1.23,-0.72,18.32,-16.27,1.1,1.38,-1.19,0.27,2.77,-15.46,-3.98,-2.42,0.69,-0.53,7.07,-7.39,0.78,0
0.15,-0.93,-1.02,10.51,-20.66,-3.29,-1.32,-1.34,-0.48,0.33,-33.52,-15.22,-0.92,-0.81,0.97,16.84,-23.02,12.01,0
-0.9,-2.28,-0.42,4.65,-15.29,4.52,0.78,-1.79,-0.48,-9.93,-13.02,11.15,-0.62,-0.96,0.37,6.58,-12.76,36.42,0
-1.2,-0.63,1.08,0.26,-12.36,14.77,1.53,-2.54,0.27,-13.34,-18.88,7.73,0.73,-0.06,0.22,2.19,-12.76,-0.2,0
-1.2,-1.08,-0.12,-15.86,-11.87,10.87,0.03,-0.29,-1.23,-4.07,-1.3,-60.63,0.28,-0.06,0.22,51.99,-38.64,-64.65,0
-0.9,-0.63,1.08,14.91,-26.52,-76.05,0.63,-1.94,-0.18,5.21,-14.48,-41.09,0.73,-0.06,-0.53,-33.94,-3,88.67,0
-1.05,-1.98,1.68,-8.04,-12.85,120.24,0.78,-0.59,-0.78,-28.48,-21.81,257.73,-0.32,0.09,-0.38,-113.53,30.69,150.19,0
1.05,-1.98,-0.72,-67.61,25.24,25.52,0.03,-0.59,-0.03,-46.55,48.51,-212.48,0.73,-0.06,0.97,218.01,-115.79,-476.76,0
-1.05,-1.23,-1.02,-33.92,-26.52,-363.16,0.33,-1.34,-0.78,-59.73,71.46,-173.42,-0.02,-1.26,-0.53,-171.64,60.48,222.46,0
0.6,0.27,-0.72,-334.22,-141.27,112.92,0.63,-0.44,-0.18,84.31,-315.26,205.49,-0.62,-0.21,-1.43,136.96,123.96,87.69,0
1.2,-0.63,-0.12,-19.27,12.54,85.09,-0.42,-0.59,-0.48,-7.97,19.7,-81.13,0.73,0.24,-0.53,27.09,-41.57,-52.93,0
-0.6,-0.03,-0.72,6.6,-2.11,-5.25,0.33,-0.29,-0.48,4.24,9.93,-7.4,0.28,0.99,-0.53,6.58,-1.04,12.98,0
1.05,0.27,0.18,5.63,-0.64,6.47,0.33,-1.34,0.27,8.14,4.07,-2.03,-0.32,-0.21,0.37,-2.2,0.42,1.75,0
-0.45,0.57,0.33,3.19,6.68,6.96,0.93,0.01,-0.18,0.33,-2.76,5.78,0.43,-0.66,0.07,8.05,-18.62,-4.1,0
-0.15,-0.93,0.48,0.26,-7.97,13.8,-0.27,-0.44,0.12,2.28,-0.81,9.69,1.03,-0.51,0.22,-2.2,-0.07,2.24,0
0.75,0.87,0.78,-6.58,1.8,0.61,0.93,0.31,-0.63,9.12,-0.32,-0.08,0.88,0.09,0.07,3.17,3.35,8.1,0
-0.9,0.87,-0.42,1.72,-4.55,10.38,0.18,0.01,0.12,-1.14,-3.74,1.87,0.28,-0.06,-0.23,-7.09,11.65,-0.69,0
-0.6,-0.93,0.18,0.26,11.08,7.94,0.63,0.31,0.57,1.79,-4.23,-7.4,-0.32,0.84,1.12,-8.06,-1.53,2.73,0
1.05,0.27,-0.27,-9.02,2.78,5.5,0.03,-0.29,-0.03,5.21,-8.13,-5.45,0.73,-0.51,0.22,-0.74,-2.02,4.2,0
0.15,-0.48,0.48,1.72,0.33,-5.73,-0.72,-0.44,0.12,-2.11,1.63,-0.57,0.73,0.69,-1.28,-2.2,2.86,-3.62,0
0.15,-0.48,0.18,-6.58,-1.62,11.84,0.33,-0.29,-0.03,16.44,-1.79,-5.45,0.73,-0.51,-0.98,-7.09,5.79,-6.55,0
-0.9,0.57,0.78,-6.09,1.8,8.91,0.63,0.76,-0.63,-6.51,3.1,17.5,0.28,-0.51,0.22,-3.18,1.88,-12.89,0
0,-0.63,1.08,-5.6,-19.69,9.4,0.18,1.51,0.57,-8.46,10.91,-1.54,0.13,0.09,0.07,0.24,-10.81,7.61,0
-0.6,-1.68,-1.02,-8.04,-1.62,-7.2,-0.72,0.01,0.87,1.31,3.1,-1.05,0.28,-0.06,0.22,-0.74,9.7,3.22,0
0.6,-0.93,1.38,-3.16,-7.97,7.94,-0.87,-0.29,-0.48,4.24,8.47,-0.57,0.88,0.09,0.37,-4.16,-3.49,3.71,0
-0.6,-0.03,0.48,3.19,-8.94,6.47,-0.42,0.16,-0.03,-1.62,4.56,-2.52,1.03,0.99,0.52,9.51,8.23,-7.52,0
-0.6,-0.03,0.48,-0.23,-7.48,-6.71,0.03,0.16,-0.48,5.7,-1.3,-11.8,0.28,-0.06,0.22,2.19,-6.9,-3.13,0
-1.2,0.57,-0.87,3.19,2.29,8.43,1.23,0.46,0.72,-9.93,-1.79,-3.01,-1.22,-0.06,-0.53,1.21,2.37,2.24,0
0.75,-1.08,-0.42,-2.67,1.8,-8.18,0.18,0.31,-0.93,-1.14,-2.76,-0.57,-0.92,-0.06,0.22,4.14,9.21,1.75,0
-0.45,-1.08,-0.42,-0.72,0.33,-0.36,-0.87,0.16,-0.03,12.54,0.17,5.78,-0.47,-0.06,-0.23,3.65,-4.95,7.13,0
0.6,-1.23,-1.47,13.93,14.49,10.87,0.63,0.01,0.57,-9.44,5.54,0.9,-0.62,-0.96,-0.38,0.24,-13.74,-3.62,0
-0.45,0.57,-0.42,-6.58,-0.64,3.06,0.93,0.01,1.62,5.21,1.14,3.34,0.73,0.24,-0.53,1.21,1.88,-2.64,0
-0.45,0.87,-0.87,11.49,6.19,2.08,0.63,0.76,0.12,4.72,-2.27,5.78,1.03,-0.81,0.52,-3.18,7.74,-1.66,0
-1.2,0.57,0.33,-5.11,2.29,1.1,0.03,-1.04,-0.48,-0.16,-10.57,1.87,-0.62,0.84,-1.43,0.24,8.23,-2.64,0
0,0.57,-1.62,-5.11,4.73,8.43,0.03,0.46,-0.78,2.28,-8.13,-7.89,0.28,0.69,0.22,-2.69,7.26,-1.66,0
-0.85,-0.24,1.74,0.04,3.79,5.75,-0.84,0.42,0.5,-1.81,10.68,5.07,-1.64,0.93,0.96,-0.55,10.1,1.35,0
0.65,-0.09,-0.06,4.44,8.19,2.33,0.06,-0.18,0.35,-9.63,-2.01,0.68,0.31,-0.12,-0.54,-8.36,1.31,7.7,0
1.25,0.51,-0.66,1.02,19.42,4.78,2.31,0.42,-0.25,0.14,13.61,5.07,-0.44,0.18,-0.09,-8.36,6.68,-1.58,0
1.25,-1.89,-1.41,13.71,5.74,-8.41,-0.09,-0.03,-0.7,0.14,13.13,-5.67,0.01,-1.62,-0.09,0.43,-6.51,3.31,0
-0.25,1.11,0.84,-9.72,1.84,-12.8,-0.54,0.72,0.95,-1.81,-7.87,4.09,-0.59,-0.27,-0.99,0.92,1.31,14.54,0
0.2,0.66,0.39,4.44,5.74,-12.31,-1.14,1.02,0.35,2.58,7.27,-3.23,1.36,0.48,-1.44,18.5,2.77,-6.95,0
-0.25,0.36,1.14,4.92,-7.44,-18.66,-0.09,-0.03,0.5,17.23,-1.52,-28.13,0.16,0.48,0.36,15.08,0.33,1.35,0
0.65,0.36,-0.81,1.02,10.14,10.15,0.81,1.17,-0.25,-2.3,0.43,58.78,0.76,-0.42,-0.09,-50.84,25.72,27.23,0
-0.25,-0.09,0.39,0.04,47.25,32.61,-0.84,1.47,0.05,-38.92,23.87,-70.61,0.16,0.03,0.06,42.91,-44.59,-127.06,0
-0.25,-0.39,0.39,18.6,17.46,54.09,1.11,0.42,0.5,149.07,12.64,66.59,0.31,-0.12,-0.09,-68.91,78.46,198.62,0
0.35,0.96,-0.96,-24.37,238.17,86.81,-0.69,0.27,-0.1,148.58,13.13,-98.45,0.76,0.63,-0.84,178.16,-13.34,-225.7,0
-0.4,0.51,-0.21,-70.27,31.62,-85.07,-2.04,1.17,-1.75,-154.16,134.71,35.83,-1.04,-0.27,0.81,-781.8,82.85,158.58,0
-1.45,0.66,-1.26,82.56,30.16,12.1,-1.74,-0.03,-0.25,144.18,-71.84,53.41,0.46,0.03,1.11,350.04,91.15,97.06,0
-1.3,0.51,0.24,15.67,23.81,-5.97,-2.04,1.17,-0.25,14.3,0.43,30.95,-0.59,0.48,-0.24,28.75,10.58,12.1,0
-2.35,1.86,-1.26,18.6,29.67,1.36,-0.84,0.72,-1,12.84,0.92,2.63,0.31,-0.42,1.41,31.68,13.51,10.14,0
-0.4,2.01,-0.66,8.34,22.35,-8.9,-1.29,1.17,-0.7,18.69,2.38,-9.58,-0.89,1.38,1.71,20.45,-1.13,3.8,0
-0.85,1.71,-0.96,10.29,36.51,-5.48,-0.69,1.02,-0.4,19.18,4.34,-10.56,0.16,0.78,1.56,6.29,2.28,2.33,0
-1,1.11,-0.36,10.29,32.11,-12.8,-1.44,0.57,-0.1,14.3,6.29,-8.6,0.76,-0.42,1.41,15.08,10.58,6.73,0
-1.3,0.06,-0.66,16.64,21.86,-11.34,-1.44,1.02,-1.6,20.16,6.29,19.72,-0.59,0.48,0.06,0.43,12.54,-6.46,0
-0.4,2.46,-0.66,7.85,24.79,4.78,-0.84,1.47,-1.45,9.91,16.54,12.39,2.11,2.28,0.81,3.85,18.89,1.84,0
-0.7,0.66,-1.26,16.15,33.58,3.8,-0.69,0.57,0.35,29.44,-9.82,38.76,0.16,0.48,1.86,-30.33,16.44,-0.11,0
0.05,2.01,-1.41,14.2,11.11,50.67,-0.09,0.42,0.05,15.28,15.57,33.88,0.91,-1.02,1.11,-32.28,34.51,36.02,0
-0.85,2.01,-0.21,-51.23,3.3,23.82,-1.44,-0.18,0.35,10.88,-36.68,58.78,0.16,0.48,1.86,-36.68,58.44,78.5,0
-0.4,1.71,-0.21,95.26,-48.94,993.97,0.81,0.72,0.95,163.71,-82.58,530.95,-1.04,1.53,2.31,-127.99,103.36,264.05,0
-0.4,-0.99,0.54,-0.45,-2.07,-9.87,-0.54,-0.03,-0.25,7.46,-4.94,0.19,-0.89,-0.42,-0.09,-2.01,-37.76,-134.88,0
0.95,-0.09,-1.26,-5.82,-2.56,7.22,0.36,0.42,-1.45,-9.14,-3.48,9.95,0.31,0.18,-0.54,-2.5,-1.13,-4.99,0
0.95,-0.09,-0.81,-1.42,1.84,14.54,-0.09,0.72,-0.25,9.91,2.87,-1.28,-0.89,-0.42,0.21,0.43,-10.41,-9.88,0
-1.3,0.51,-0.66,-7.28,-3.53,1.36,0.36,-0.33,0.5,-3.77,0.92,-2.25,-0.29,0.03,-0.24,-10.8,-1.62,-6.46,0
1.25,-0.69,0.24,-3.38,-2.07,-3.53,0.36,-0.33,-0.25,7.95,7.75,9.95,0.16,0.48,-0.69,-4.94,-1.13,4.28,0
-1,0.36,-0.06,2.48,2.81,9.66,-1.44,0.27,-0.1,-4.74,0.43,0.68,-0.89,-0.12,-0.54,-5.92,-3.58,6.24,0
-0.7,0.36,-0.81,3.95,1.35,-0.6,0.06,0.27,-0.1,7.46,3.36,3.12,0.16,0.48,-0.69,-1.52,5.7,-9.88,0
-0.25,0.66,-0.36,13.22,2.81,2.82,0.06,0.57,-0.1,-6.7,6.29,7.51,0.31,-0.87,-0.09,-1.03,-5.53,-5.48,0
0.65,-0.84,-0.06,-6.31,-11.83,-4.01,0.36,-0.03,0.95,-6.7,-6.89,-6.65,-0.29,0.48,1.11,-2.01,-1.62,5.26,0
1.4,0.36,-0.06,1.51,-3.05,-1.57,1.41,0.57,0.65,0.63,6.78,-2.25,-0.29,0.48,-1.44,-3.96,3.26,0.38,0
-1,-0.09,-0.06,5.9,-8.42,-0.11,0.51,0.27,-0.1,-10.11,-6.89,10.93,0.31,0.93,-0.54,2.87,-2.6,-3.53,0
-0.25,1.56,-0.81,-0.45,-0.12,14.05,0.81,0.42,-0.25,1.12,0.92,2.63,-0.59,0.03,0.81,-1.03,-1.62,-7.43,0
0.05,1.26,0.24,-6.8,-11.83,9.17,0.51,0.27,0.35,-1.81,0.43,1.16,-1.04,-0.27,-0.24,6.78,6.19,-9.88,0
-0.7,-0.39,0.84,-6.8,-6.95,1.36,0.06,0.57,-1.15,-5.23,-7.87,-12.51,0.76,-0.42,0.21,-2.99,-4.06,-5.97,0
0.2,0.36,1.59,-0.94,6.72,-3.53,-0.09,-0.33,-0.25,1.12,-2.01,4.09,0.46,0.48,-0.24,6.78,-0.16,2.82,0
-0.7,-0.39,0.39,-14.12,-0.12,1.36,-1.14,-0.18,-0.4,-0.35,-6.41,-2.74,0.16,0.78,0.06,5.8,-1.62,-3.04,0
0.8,-0.69,0.54,-2.89,1.84,10.63,-0.69,-0.18,1.4,-4.74,6.29,-3.72,0.01,0.63,-0.09,-0.55,4.72,4.28,0
0.35,-0.24,-0.66,-0.45,6.72,-3.53,-0.84,-0.03,-0.25,4.53,-10.8,-3.23,1.06,0.63,0.96,17.03,-11.88,1.35,0
1.25,0.51,0.54,-7.28,14.04,-9.39,0.06,-0.48,0.35,-1.32,6.78,8.98,2.11,-0.72,-1.44,-3.48,0.82,2.33,0
0.8,0.06,0.54,-2.89,-11.83,-2.06,-0.09,-0.03,-0.25,-1.81,1.89,-0.3,0.16,0.03,0.06,-2.99,-15.29,-0.6,0
0.2,-0.09,-2.01,-2.4,-7.44,-8.41,0.36,0.42,0.05,0.14,-10.31,2.63,-0.59,0.03,-0.69,-3.96,3.75,-12.81,0
-0.85,0.51,0.99,-2.89,8.19,10.15,-0.09,-0.03,0.5,-10.6,-4.94,4.09,0.01,-0.42,0.66,-0.55,1.8,-6.95,0
-0.25,-0.09,-0.81,9.32,-5.97,-0.6,0.81,-0.78,0.5,-2.3,3.36,3.12,0.76,-0.12,-0.54,-2.99,5.7,-14.27,0
-0.4,0.96,0.54,3.46,-5,-10.85,-0.69,0.27,-0.1,-7.67,-8.36,13.86,0.31,0.63,0.96,-15.19,-0.65,-4.51,0
0.65,-0.09,0.39,-4.84,-0.6,-5.48,0.36,-0.03,-0.25,2.09,5.31,3.6,0.91,-0.27,0.06,8.24,-3.09,1.84,0
-0.25,0.36,0.84,2.97,3.3,0.87,0.36,-0.03,1.25,0.14,-9.34,1.16,0.01,-0.12,0.21,4.34,1.31,7.7,0
0.14,-0.66,0.55,2.62,-1.94,1.41,0.07,0.29,0.04,2.32,-10.31,2.54,0.18,0.08,0.47,-0.84,5.37,-6.25,0
1.19,0.69,0.85,-18.87,-12.2,2.87,0.37,0.44,-0.11,1.34,3.36,2.05,0.03,0.68,-0.43,1.11,4.39,20.6,0
0.14,-0.66,0.55,-4.22,1.96,-9.34,0.52,-0.46,-0.71,1.83,-2.99,0.09,-0.42,-0.07,-0.43,7.46,-7.32,0.58,0
1.04,0.09,-0.2,2.13,-0.97,5.31,-0.68,-0.76,-2.21,-7.94,9.22,-1.86,0.03,-0.07,-1.18,12.83,0,8.4,0
-0.16,-0.96,1,0.66,6.36,1.89,0.07,-1.21,0.04,8.67,1.41,-6.74,-0.12,-0.22,-1.03,10.39,13.67,1.07,0
-0.16,-0.21,-0.2,-2.27,5.38,0.92,-0.53,0.44,-0.56,0.36,0.43,-4.3,-2.52,0.38,-0.58,13.32,-10.74,-0.88,0
-2.56,0.39,-0.35,-2.76,-1.94,4.82,-1.13,0.29,0.04,-5.01,3.85,-3.32,0.93,0.38,0.47,0.62,-8.79,5.95,0
-0.16,-0.66,-0.65,15.8,-5.85,3.85,-1.13,-0.01,0.79,6.71,6.78,-1.86,-1.62,-0.07,0.62,-6.7,1.95,10.84,0
-0.46,0.69,-1.25,-168.77,11.73,-12.27,-0.08,-0.61,-0.56,-60.18,94.18,-5.28,0.18,1.13,0.47,30.41,9.28,7.91,0
-0.61,0.09,0.25,190.12,-52.72,158.63,-0.23,-0.01,-0.26,285.03,-243.22,-9.18,-0.12,0.08,-0.28,443.49,79.59,205.17,0
-0.91,-0.06,-0.35,-104.32,29.31,-27.4,0.37,0.14,0.64,-85.08,85.88,-2.84,-1.92,1.43,0.32,-133.65,34.18,-32.13,0
-0.46,1.14,-0.05,-15.45,18.56,-10.8,-1.43,1.04,0.49,-4.03,-3.96,-3.32,-0.42,0.23,1.07,-18.42,-7.32,-6.74,0
-0.16,0.09,-0.2,2.62,31.26,14.1,-0.83,-0.61,-0.11,8.18,-11.78,-7.23,-1.17,-0.82,0.62,-0.35,10.25,-4.79,0
-0.91,1.14,-0.8,21.17,26.38,-1.52,0.07,-1.51,-1.01,18.92,-6.4,-9.18,0.63,0.83,-0.58,13.81,8.79,-6.25,0
-0.01,1.14,0.85,11.4,27.84,-19.59,-1.43,-0.01,-0.71,17.94,-6.89,5.95,-1.17,-0.07,0.32,15.76,5.37,-2.35,0
-0.61,0.54,-0.2,12.38,21.98,-9.82,-1.43,-0.46,-1.01,9.64,0.92,2.05,1.23,0.68,1.07,15.27,2.93,5.47,0
-0.61,1.74,-0.2,21.17,16.61,-6.41,-0.83,0.44,-0.56,16.97,-9.33,-4.79,-0.57,-0.22,0.47,16.25,6.35,14.74,0
-1.06,1.74,-0.2,24.1,13.19,-15.68,-0.68,-0.46,-0.26,21.36,-10.8,-7.23,0.03,1.43,0.62,22.6,0,-1.37,0
-2.11,1.89,0.4,22.15,21.01,0.92,-2.48,-0.31,-0.11,15.99,-12.75,0.58,-1.02,1.13,0.17,1.6,-13.18,5.47,0
-1.21,-0.06,-0.05,17.75,33.7,14.59,-0.53,-0.61,-0.11,15.99,-4.94,-5.28,-0.42,0.68,-0.73,10.39,-0.49,7.91,0
-2.11,2.34,-1.25,-29.12,139.17,-4.45,-0.08,-0.31,-0.56,8.18,-8.85,37.69,-1.32,0.08,-0.58,-109.73,-2.93,38.18,0
-0.16,0.99,-0.2,-296.21,-180.17,-151.91,-0.68,-0.46,-0.26,-510.87,340.76,397.07,-1.17,-0.52,1.07,-534.53,112.79,-266.51,0
0.44,-0.36,0.85,31.42,-0.48,-15.68,-0.68,-1.21,-1.01,241.09,-171.44,-330.47,-1.02,0.38,0.47,1011.85,99.12,227.15,0
0.59,0.09,1.75,8.47,-5.85,3.85,-0.08,0.44,-0.11,-10.38,8.24,1.56,0.03,-1.57,0.02,5.02,2.93,2.54,0
-0.91,1.59,-0.05,-2.76,0.5,2.38,-0.08,0.89,-0.11,5.25,6.78,6.93,0.18,0.83,0.92,11.36,-4.88,-10.16,0
-0.61,0.54,0.55,-7.64,-4.38,7.27,0.07,-0.76,0.04,-4.03,3.36,2.05,0.93,1.13,-1.03,4.04,-0.98,4.98,0
0.44,-0.36,0.85,-5.69,-1.46,2.87,0.07,-2.26,0.49,3.78,2.87,-0.88,1.53,0.68,-0.73,-3.77,-2.44,-2.84,0
0.14,0.54,0.55,-3.73,2.94,-6.89,-0.68,0.29,1.24,3.29,2.38,0.09,-0.57,0.38,0.47,-0.35,8.79,10.35,0
-0.91,-0.81,-0.35,2.13,3.92,-2.99,-1.13,-0.46,0.49,-19.65,-2.99,7.91,0.18,0.08,1.22,14.29,-4.39,-0.39,0
0.59,0.09,0.25,9.45,-4.38,-0.06,-1.73,0.14,0.19,-3.54,4.34,-0.88,0.78,0.23,0.02,-6.7,-1.95,-3.32,0
-0.01,-0.81,-0.05,-1.29,0.01,-6.89,0.37,-0.61,0.19,-3.05,-4.94,5.47,0.33,-0.52,-0.43,8.43,5.86,2.05,0
-0.16,-0.66,-0.95,-1.78,2.45,-9.82,-0.53,-0.61,-2.06,3.78,0.43,-1.86,0.33,0.68,-1.48,-6.7,8.79,0.09,0
-1.21,0.69,0.85,-8.61,1.96,1.89,-0.08,-0.31,1.39,1.34,9.22,4.98,-1.02,-0.67,0.92,12.83,-7.81,-12.6,0
-1.21,-0.96,0.25,-4.71,-5.36,-0.06,-0.53,0.14,0.64,2.32,-1.03,-6.74,0.63,-0.67,-0.28,-2.8,5.86,-4.3,0
-0.61,-0.66,1,7.99,1.96,-0.06,0.37,0.44,0.64,1.34,10.69,-1.37,-0.42,-0.07,-0.43,1.11,-6.84,-3.32,0
0.14,-0.21,0.55,-4.22,-3.41,-1.52,-0.53,0.44,-0.56,-16.24,-6.4,2.54,1.23,0.23,0.62,-1.33,-1.46,0.09,0
0.14,-0.96,-0.2,-1.29,-3.9,-1.04,0.52,-0.01,0.49,-0.12,0.92,1.07,0.33,-0.07,0.62,14.29,6.84,-3.32,0
-0.01,-0.36,0.85,3.59,-4.38,5.8,-0.08,0.14,1.09,0.36,-10.8,4,-0.72,0.23,0.62,-3.77,-0.49,6.93,0
0.14,-0.21,0.25,18.24,-13.17,-5.43,1.12,-0.61,-0.11,8.67,-0.55,4,-0.72,-0.52,-0.43,0.13,4.88,-9.67,0
-0.01,-0.06,-0.05,11.4,-9.27,7.75,0.37,0.44,-0.11,-1.59,-1.52,5.47,-0.57,0.08,0.92,5.02,0.49,0.58,0
-1.51,-0.21,-0.65,-20.33,-0.97,1.41,-0.08,-0.31,0.19,2.32,-0.55,-3.32,0.03,-0.52,0.62,-18.42,-4.88,5.95,0
-0.61,0.54,0.25,1.15,-4.38,-1.52,-0.68,0.74,0.04,0.85,1.9,8.88,-0.12,0.08,0.47,-1.82,5.86,-3.81,0
0.44,-0.81,-0.05,-2.27,1.47,-7.38,-0.23,-0.46,0.04,-5.01,-4.94,-4.79,0.03,-0.52,0.32,-7.68,-6.84,-2.35,0
-0.46,-1.26,-0.05,-1.29,-2.43,1.89,-0.68,0.29,-0.26,10.62,-3.47,2.05,-1.92,-0.52,0.62,4.53,-6.84,-1.86,0
-0.46,-0.36,0.4,-5.2,12.71,-5.92,-0.23,-0.46,0.04,-7.45,-2.5,4,1.98,-0.07,-1.18,-7.19,3.42,3.51,0
0.14,-0.21,0.55,9.45,-1.46,1.41,-0.23,-0.01,1.24,0.85,4.34,5.47,-0.57,0.38,-0.58,-0.84,-8.79,-6.74,0
-0.01,-0.36,0.4,-14.96,-5.85,-4.45,-0.83,-0.31,-0.56,-5.98,-5.43,4.49,-0.57,-0.97,0.92,7.95,-10.74,-5.77,0
0.44,-0.36,-0.35,-3.24,-4.87,4.34,0.37,0.14,0.19,-9.89,2.38,-4.3,0.93,1.58,0.47,-1.33,12.21,-7.72,0
-0.46,-0.36,-0.05,9.45,-6.83,-7.87,-1.13,-0.01,0.04,-3.54,2.87,7.91,0.93,0.38,-0.28,12.83,6.35,9.86,0
0.59,-0.66,-0.2,13.85,15.15,-1.04,0.52,0.29,0.04,-14.28,-14.71,3.02,0.18,0.38,-0.58,-2.31,9.28,-0.39,0
0.11,-0.06,0.25,-16.41,9.33,-15.07,1.22,-0.3,-0.13,-2.49,-12.82,5.89,-1.34,0.27,-1.04,-1.85,2.82,3.63,0
-1.39,0.99,-0.35,1.65,-1.42,-20.44,0.62,0.3,-0.28,1.41,-1.59,4.91,0.16,-0.18,0.61,17.19,-5.97,-7.11,0
0.26,0.54,1.3,6.54,12.74,8.37,-1.78,-0.75,0.02,-34.72,-36.74,4.91,0.46,1.17,0.16,-2.34,7.22,-6.14,0
-0.49,-0.66,0.1,6.05,1.03,1.53,1.07,-0.45,0.77,9.23,2.81,6.38,0.91,0.12,0.16,-8.69,-4.99,4.61,0
-0.34,0.69,-0.2,2.63,4.93,-8.72,0.92,-0.3,0.17,4.83,1.34,3.45,0.91,0.12,-0.14,-8.2,8.19,-1.25,0
0.26,0.54,-0.35,4.1,4.44,-0.91,0.47,-0.3,-0.58,9.72,0.37,-13.64,0.91,-0.18,-0.59,5.47,5.26,12.42,0
0.56,0.39,0.25,8,-18.99,4.46,-0.13,0.3,0.77,5.32,-0.61,-9.25,0.16,0.12,0.91,-1.85,13.08,1.68,0
-0.04,0.09,1.3,-4.69,-6.79,4.95,0.62,-0.75,0.47,-2.49,-0.12,-8.27,-0.74,0.12,-1.34,11.33,10.63,-10.53,0
-1.09,-0.81,-0.2,8,-4.35,-18.98,-0.58,1.05,0.02,-6.89,8.67,-10.22,-0.44,-0.78,2.26,24.52,-5.97,-16.88,0
-0.04,-1.41,0.4,-1.28,7.86,-6.77,-0.58,-1.2,-0.28,-6.4,15.5,-19.99,0.61,-0.03,0.46,-4.78,-21.59,11.44,0
0.71,1.29,0.4,7.51,0.54,7.88,0.92,-0.6,0.17,-1.52,12.57,-5.83,-0.44,-0.03,-1.04,-7.22,-0.6,4.61,0
-1.84,-0.21,0.4,-1.76,-0.44,4.95,-0.43,-1.05,0.17,-9.33,9.65,-3.39,-1.04,0.12,0.16,15.73,2.33,-3.21,0
0.71,-0.66,0.1,-1.76,-16.06,2.99,1.52,0,0.47,0.93,3.79,1.49,1.21,0.42,0.61,15.73,0.38,-6.14,0
0.56,1.14,-0.95,-8.6,0.05,9.83,0.47,-0.6,-1.63,3.86,1.34,-0.46,0.16,-0.18,-0.14,5.47,-5.48,-7.6,0
-0.04,-0.96,-0.35,11.42,6.88,3.48,-0.43,-0.6,0.62,-10.79,-5.98,9.79,-0.14,-0.03,1.06,-1.85,4.29,5.09,0
-0.49,-0.96,-0.35,22.16,-10.21,4.46,0.02,-0.6,-0.88,7.27,-2.56,3.94,-0.44,0.27,0.46,5.47,-0.11,10.46,0
-0.49,-0.21,0.85,-2.25,7.86,-10.68,-0.43,0.15,-0.58,6.79,12.09,0.52,1.51,-0.03,0.46,-5.76,-6.46,-2.72,0
-1.54,0.39,-0.2,-9.58,0.05,1.53,0.02,0.15,1.07,18.5,12.09,2.96,0.91,1.62,-0.14,-16.99,-17.2,-2.72,0
-0.04,0.99,-0.8,-5.67,-3.86,-8.72,-0.73,-0.6,0.62,0.93,-1.1,-8.76,0.16,-0.93,0.16,-2.34,1.85,-4.18,0
0.56,0.39,-0.95,2.63,-2.39,2.99,-0.58,-0.75,-1.03,3.86,-6.47,-1.92,-0.29,-0.93,-0.14,4.01,-0.6,-5.16,0
-0.04,-0.96,0.1,-6.65,-3.37,3.48,-0.73,-1.05,-0.88,5.81,12.09,5.4,1.66,0.12,0.61,4.99,7.22,-2.23,0
0.71,0.09,-0.35,-9.58,-6.3,-0.42,0.17,-0.75,0.47,-3.47,-5,-9.74,-0.44,-1.83,-0.29,2.06,-6.94,-1.74,0
-1.09,-0.81,0.25,1.65,-1.42,-1.4,0.47,-1.05,0.17,3.86,0.37,5.89,0.31,-0.78,0.01,-5.76,-0.11,-0.28,0
-0.49,0.99,0.4,11.91,5.42,9.83,0.17,0.75,0.47,-1.52,-13.79,-10.22,0.91,-0.63,-1.64,-11.62,0.87,-3.21,0
-0.79,-0.81,-0.2,-6.65,1.03,0.55,0.02,-1.05,-0.88,0.44,6.23,-8.27,0.16,-0.18,-0.59,5.47,4.78,8.02,0
-1.09,0.69,0.25,3.12,6.4,2.99,-0.43,-1.05,-0.13,-6.4,2.81,8.33,0.61,-0.03,0.01,-3.31,-3.04,9.98,0
-0.49,-0.66,-0.35,-10.07,-2.39,3.97,-1.18,-1.05,1.37,-0.05,1.34,0.52,0.91,0.12,0.16,-3.8,-8.9,-0.77,0
-0.49,1.29,0.85,4.1,-2.88,7.88,0.47,-1.05,-0.88,0.93,0.86,1.49,0.46,0.87,-0.14,-3.31,-4.99,-6.14,0
0.26,1.29,0.4,3.12,-5.81,7.39,0.02,0.45,-0.58,1.9,0.37,-5.34,-0.74,-0.63,-0.89,5.96,-3.04,-6.62,0
0.26,0.99,0.85,11.91,-6.3,0.06,0.92,-0.6,-0.13,-2.49,5.74,0.03,-0.14,0.72,0.46,-0.87,9.17,-1.25,0
-1.09,-0.36,-0.2,3.12,-2.39,7.88,-1.18,0.45,-1.63,3.37,8.67,1.98,0.46,-1.38,0.16,8.89,-2.06,-7.11,0
-0.04,0.54,-0.35,-4.21,2.49,2.99,0.02,-0.3,0.62,9.23,-4.51,6.38,0.61,-0.03,0.46,4.01,-1.57,-9.55,0
-0.91,-0.06,0.4,6.03,-3.41,-2.01,-0.68,-0.01,0.04,2.32,-9.33,3.02,-1.02,0.08,-0.28,-0.35,-0.49,2.05,0
0.74,0.39,-0.35,-4.22,-13.66,9.71,-0.08,-0.31,-0.11,-6.47,0.92,-2.84,-0.72,-0.07,0.32,3.06,-0.98,-4.79,0
1.19,-0.36,-0.8,3.1,-2.92,-2.5,0.07,0.74,-0.26,-1.59,-5.92,5.47,0.78,-0.07,-1.18,-4.26,0,2.05,0
0.14,-0.96,0.55,-9.59,-1.94,-8.85,0.37,-0.31,1.39,-6.47,-4.94,-3.81,-0.57,0.38,-1.33,0.62,-0.98,-3.81,0
-0.01,-0.06,-0.05,-2.76,0.01,7.27,0.07,1.04,-0.71,-4.03,-1.03,-4.3,-1.32,-0.67,0.47,-7.68,1.95,3.51,0
0.44,0.39,-0.35,0.66,4.4,2.87,0.37,-0.31,0.19,11.6,-2.99,4.49,-0.12,0.38,-0.58,2.58,-4.39,3.02,0
-0.46,-0.06,-0.8,-4.22,7.33,3.85,0.07,-0.01,0.04,-5.49,-5.43,3.51,-0.72,0.68,-0.73,6.48,-0.49,15.23,0
-0.61,0.09,0.25,-8.61,-0.48,6.29,-0.08,0.14,0.64,-5.01,2.38,1.56,0.33,-0.07,-1.18,-5.73,-4.39,-2.84,0
-1.21,-0.06,0.4,-4.71,-1.46,-2.99,1.12,0.44,-0.56,8.67,2.38,15.23,-1.17,0.68,-0.43,3.55,-2.44,4,0
0.44,0.39,-0.05,-7.64,-13.66,-9.34,0.37,-0.31,-0.56,12.57,-0.06,1.56,0.03,0.98,-0.43,-0.84,13.18,-2.35,0
0.44,-0.36,1.15,-5.69,-3.9,2.38,-0.53,-0.31,-0.11,3.78,1.41,9.37,0.18,-0.67,-0.58,-1.33,-1.95,0.58,0
1.04,0.54,0.25,-6.17,-0.97,4.34,0.37,-1.36,-0.11,-0.61,-10.31,-6.25,0.03,-1.12,-0.73,3.55,-12.21,6.44,0
-1.06,-0.66,0.25,8.47,1.96,9.71,-1.28,-0.31,0.64,9.64,5.31,-4.3,-0.12,0.38,-0.28,3.55,-12.7,-7.23,0
-0.46,-0.36,0.4,5.06,-3.9,-6.41,0.07,0.74,-0.26,-10.87,-0.06,4,-0.72,-0.07,-0.43,0.13,-3.91,16.21,0
-0.61,0.09,0.25,3.1,1.96,5.31,-0.83,-0.61,-0.11,8.67,7.27,0.09,0.18,-1.42,-0.28,3.55,0.49,-12.11,0
-0.16,0.09,0.25,-6.66,6.85,-3.48,0.82,0.14,0.19,5.74,13.13,4.49,0.78,0.23,-0.73,5.99,2.93,-12.11,0
0.74,-0.06,-0.05,0.66,-9.76,7.27,1.12,0.44,-0.11,7.2,-8.85,3.51,0.78,-0.52,0.62,-4.26,-7.81,8.88,0
-0.61,-0.21,0.25,-6.17,-6.83,3.36,-0.53,-0.31,1.39,7.69,-3.96,-10.65,-1.02,0.38,-1.03,-0.35,-1.46,-9.18,0
-0.95,-0.13,-0.79,2.07,-1.29,7.63,-0.59,0.86,-0.23,10.59,-5.66,-6.24,0.63,0.28,1.03,-1.78,1.16,0.14,0
-0.05,-0.28,-0.19,-3.79,7.5,-0.19,-0.74,1.01,0.67,-0.64,-1.26,-7.21,0.48,0.43,-0.92,5.06,14.83,3.07,0
0.1,-0.13,-0.79,-9.65,-6.66,6.16,0.31,-0.34,0.52,3.27,-12.49,-4.28,1.08,-0.77,0.73,-2.26,-3.72,0.14,0
0.1,-0.43,-0.34,10.85,-17.89,9.09,0.76,-1.09,-0.23,8.64,-0.28,4.02,0.93,-0.17,-0.62,-5.68,8.48,6,0
-0.8,-0.43,-0.34,2.07,1.15,-13.86,0.31,-0.34,-0.68,1.31,1.67,-1.35,0.33,-0.47,-0.77,5.06,4.09,-5.23,0
0.25,0.02,-0.64,5.48,9.45,-4.09,-0.14,-0.64,1.27,-0.64,15.34,8.9,-0.42,0.73,0.73,-20.33,-9.1,3.07,0
-0.5,-0.28,-0.64,14.27,-3.73,1.77,1.51,-1.09,-0.23,-1.13,1.67,7.43,-1.62,1.03,-0.02,-0.8,9.46,6.98,0
-0.05,0.92,-1.39,-8.68,7.01,-1.65,0.46,-0.79,-0.38,-8.94,-0.77,-3.8,1.08,0.73,0.43,33.38,-12.02,-9.63,0
-0.05,-0.28,0.26,8.41,-5.19,-32.9,-0.29,-0.04,-0.08,21.33,-26.16,-28.21,-0.42,-0.47,0.73,27.52,22.64,36.76,0
-0.8,-0.13,-0.34,0.11,11.9,69.64,-0.74,-0.04,-0.83,0.83,-14.93,21.59,1.23,-0.17,-0.92,-75.51,42.66,74.85,0
0.1,0.32,-0.34,-25.77,-7.15,28.13,-1.34,0.11,-0.23,-9.92,47.57,-83.87,0.93,-0.62,0.58,202.33,-116.52,-419.78,0
-0.8,0.62,-0.04,-40.9,-8.12,10.56,-1.49,-0.49,0.37,-47.03,6.55,61.15,-0.12,0.73,0.73,-66.23,70.49,128.56,0
-1.1,1.07,0.41,24.53,-1.29,46.2,-2.09,0.11,-0.98,190.77,-128.21,-1.35,-0.42,1.78,1.03,249.2,59.26,106.59,0
-1.55,1.82,-0.79,6.46,24.1,34.97,-0.74,1.01,-0.08,6.2,4.6,24.04,-0.27,0.43,0.88,-16.91,3.11,23.09,0
-1.85,0.47,-1.39,4.51,37.78,-62.2,0.01,-0.79,0.37,0.83,3.62,-3.8,-0.12,0.73,1.48,10.92,2.62,11.86,0
-0.35,0.62,-0.34,13.3,30.45,-30.95,-1.94,-1.24,-0.08,13.52,6.06,-2.33,-1.02,0.43,0.13,12.87,-4.7,-28.18,0
-2.6,1.67,-0.94,32.34,50.47,-81.73,-1.34,0.86,0.07,89.69,78.33,-128.8,-0.42,-0.02,1.78,28.5,-2.26,-20.37,0
-1.4,1.22,-0.64,-177.62,131.04,-67.08,0.31,0.86,-0.68,5.71,-63.27,282.34,-0.42,-0.02,-0.02,122.74,-33.51,-43.32,0
-0.8,-0.43,1.61,1.58,0.67,-4.58,-1.19,0.71,-0.08,81.88,508.5,-2235.24,-0.12,0.73,0.43,2423.94,-756.17,-2898.79,0
0.7,0.92,0.26,4.02,4.08,-8.49,-0.89,-0.34,-0.23,-2.1,4.11,6.46,-0.72,0.88,-0.62,3.11,2.14,3.07,0
-0.95,-0.73,0.56,5.48,2.13,1.28,-0.59,-0.34,-0.68,-7.96,-7.61,14.76,-0.72,1.18,1.33,0.18,16.78,-0.35,0
0.1,-0.43,-0.34,4.02,2.62,12.51,-0.59,0.41,-0.68,6.2,-0.77,0.6,-0.12,-0.47,-0.32,-4.7,-3.72,6.98,0
-0.05,-0.28,0.56,1.58,5.06,-7.51,0.76,-1.09,-0.68,0.83,-0.28,22.57,0.33,0.73,0.43,3.11,0.67,-2.79,0
-0.35,-0.13,0.41,-12.58,0.18,5.67,0.31,-0.34,0.07,-1.62,1.18,3.04,-0.27,1.63,-0.17,-11.54,-4.21,0.63,0
1.3,0.32,0.86,8.41,0.18,-2.14,-0.89,-0.34,0.97,8.15,-7.12,4.51,0.18,0.43,-0.17,-1.29,-6.17,10.88,0
-0.8,-0.43,-0.34,-10.63,11.9,-7.02,0.31,0.86,-0.23,-3.08,-4.68,-2.82,0.93,0.43,1.33,-7.63,-2.26,-4.74,0
0.1,-0.43,-0.04,6.46,-1.29,-0.67,-0.89,0.41,-0.68,-6.99,12.41,-9.17,-0.12,0.28,0.43,15.8,3.11,-1.32,0
0.7,-0.28,1.46,-7.21,-2.26,-3.6,-0.59,-0.34,-0.23,0.83,3.13,6.46,-0.12,-0.77,-0.32,7.5,-18.86,12.35,0
1.15,0.92,0.56,-12.09,-0.8,1.77,0.01,-0.49,-0.38,0.34,2.64,10.36,0.63,0.28,0.43,5.06,-4.7,-2.79,0
-0.95,-0.73,0.26,2.55,-7.64,8.12,-0.29,-0.49,-0.83,2.78,11.43,2.06,0.18,1.63,-0.92,-3.73,1.16,-11.09,0
-1.4,-1.48,-0.94,-1.84,1.15,-1.65,-0.89,-1.09,1.27,-6.5,3.13,4.51,-0.87,0.28,-0.02,0.18,5.55,0.14,0
-0.35,0.32,0.41,-6.72,-3.24,-6.53,0.76,1.16,0.52,-1.13,6.06,-11.12,-0.27,-0.92,-0.17,-2.26,-7.14,-4.74,0
0.1,0.32,-0.34,-8.19,0.67,-10.93,0.01,0.26,1.12,-3.08,-12.98,5.48,-0.42,-1.52,-0.77,4.57,-3.72,1.6,0
-0.05,0.47,0.56,-2.33,-2.26,1.28,-0.89,0.11,-0.98,-7.96,8.02,-3.31,0.48,-0.92,-1.37,-3.73,16.3,0.14,0
0.25,-0.73,-0.19,12.81,-6.66,2.74,0.01,-0.04,-0.08,-1.62,2.64,0.11,0.33,-0.47,-1.07,-9.1,-0.79,-13.04,0
-0.8,-0.43,-0.04,9.88,-3.24,-1.16,0.31,-0.64,0.07,6.2,6.55,-7.7,1.23,0.13,-0.62,1.15,-14.95,9.91,0
0.1,-0.13,-1.54,-9.65,-4.22,-8,-0.29,0.71,-0.38,-5.52,-5.66,1.09,0.48,0.13,0.88,-2.26,-3.72,2.09,0
-0.05,-1.03,0.56,-5.75,-8.61,-2.14,-0.74,-0.49,0.37,-0.64,3.13,0.6,-0.27,0.88,0.58,0.18,2.62,5.02,0
-0.35,0.32,0.86,9.39,3.6,-3.12,-0.14,-0.64,-0.23,3.27,-7.61,2.55,0.48,0.13,0.58,-7.15,8.48,1.6,0
0.55,-0.88,-0.79,4.51,-0.31,-12.88,0.01,-0.49,-0.38,-0.64,-4.68,-2.33,-0.72,0.43,-0.62,-1.78,-5.19,-6.7,0
-0.95,0.02,0.56,9.88,9.45,3.23,-0.89,-0.34,-0.23,-2.1,4.6,3.04,0.33,-0.77,-0.32,-6.66,-2.26,-7.67,0
0.1,-0.13,0.86,4.02,-0.8,-10.93,0.31,0.11,-0.23,3.75,3.13,-0.87,2.13,0.88,0.58,-13.98,-7.14,6.49,0
0.1,0.32,-0.04,-2.33,-6.17,-4.58,-0.14,-0.64,0.52,-5.03,-11.52,4.99,0.18,-0.62,-0.62,2.62,-4.7,0.14,0
-0.5,0.02,0.26,17.69,-12.03,-0.19,0.91,-0.04,-1.13,-4.06,-3.21,4.99,-1.02,-0.17,0.58,1.64,-2.75,10.88,0
-0.8,-0.43,-1.24,8.41,-0.8,1.77,-0.14,0.11,-0.23,-1.62,6.55,9.39,-0.42,-0.47,1.03,4.57,3.6,-3.77,0
0.55,0.62,0.41,5.48,3.11,-8.97,-0.89,0.11,0.97,-8.45,8.5,6.95,-0.12,-0.47,-0.02,-4.22,-2.26,5.51,0
-0.05,-0.73,0.56,-2.82,-3.73,4.21,-0.89,-0.64,0.97,-9.43,1.18,-0.38,-0.12,0.28,-0.02,-10.08,-4.7,0.63,0
2.65,-0.13,-0.79,-5.75,-4.71,5.19,-0.59,0.86,-1.43,-0.15,-4.68,-0.87,1.23,-0.17,-0.62,-1.78,2.14,-0.84,0
0.55,-0.43,0.86,0.11,-10.08,-1.16,-0.89,-0.34,0.52,-2.1,-2.73,-6.73,-0.42,0.28,-0.32,10.43,-2.26,-2.3,0
0.25,-0.28,0.26,-1.35,5.06,9.58,0.76,0.11,0.07,3.27,-3.7,-2.82,1.53,-0.77,-1.52,3.11,-4.7,-2.3,0
-0.78,-0.49,-0.04,4.04,-2.15,-8.1,0.57,-0.77,-0.13,-0.24,0.32,-2.06,-0.6,0.15,-0.04,-11.01,-0.86,19.37,0
-0.48,1.16,0.56,6.97,-6.55,-0.29,-0.18,-0.47,-0.13,6.11,-3.59,13.57,0,-1.05,-0.94,-10.03,-0.37,12.53,0
0.72,0.41,0.56,-8.16,-7.04,0.2,-0.48,0.13,-1.03,7.57,-9.45,-8.89,-1.5,0.6,0.71,20.73,-3.3,-14.32,0
0.27,-0.04,-0.64,-5.23,-5.08,-10.06,-0.63,-0.77,-0.43,-0.73,-6.03,-10.36,-0.3,0.9,0.71,8.52,-2.81,2.77,0
0.87,-0.19,-0.79,15.76,14.94,3.62,0.42,-0.32,0.02,7.57,-2.61,16.01,-0.45,1.8,0.86,-25.17,3.54,35.48,0
-0.48,-0.34,0.56,-14.51,-13.38,-3.22,-0.18,-0.47,-0.43,16.36,-22.14,-48.44,0,-0.75,-0.64,104.22,-35.53,-119.3,0
-0.33,-0.49,0.41,11.86,7.61,-23.24,0.42,-1.07,0.02,1.72,-17.26,40.42,2.25,-0.3,-0.19,-113.55,74.34,177.57,0
-0.93,-0.79,-0.19,-87.75,-61.24,-71.09,0.87,-1.37,-0.28,-70.55,66.73,-467.39,-0.45,0.3,0.56,219.46,-109.26,-359.05,0
0.27,-0.34,-0.19,122.21,59.37,156.45,-1.08,-1.22,0.62,55.43,-37.28,81.44,-0.6,-0.6,0.41,62.23,55.78,-4.07,0
-1.98,1.01,-0.79,-109.24,39.35,6.06,-1.68,0.13,-0.28,-554.44,326.98,-75.3,-0.6,-0.6,-0.34,-761.5,-210.33,-399.09,0
-0.93,0.86,-0.19,63.13,33.98,-42.77,0.12,-0.77,-0.43,82.28,-28.49,16.99,-2.1,0,1.31,312.72,59.69,154.14,0
-1.38,2.36,-0.94,35.78,24.7,-59.37,-0.63,-0.77,0.32,36.38,1.3,16.5,0.15,0.9,0.71,2.17,26.97,8.63,0
-1.83,1.91,-0.94,74.36,51.56,-68.65,-2.43,1.18,0.02,16.36,-62.18,87.79,-0.45,0.75,0.86,85.67,-14.04,-0.16,0
-0.03,1.61,0.26,-41.85,-59.77,-506.64,-1.38,-0.47,1.07,87.65,33.03,41.4,-1.5,0.6,0.71,-33.96,62.13,150.23,0
0.72,-0.04,-0.94,-7.67,3.22,-3.71,-0.18,0.28,-0.43,107.18,157.06,-1189.07,0.45,-0.15,-0.04,29.03,-563.85,-2344.89,0
0.12,0.26,0.41,4.04,8.1,1.66,-0.63,-1.22,0.32,-3.66,6.18,-4.5,-1.05,0.6,-0.04,-6.62,-10.14,1.79,0
-0.03,-0.34,0.56,0.63,0.29,-13.47,-1.08,0.73,0.32,-5.12,3.74,-1.08,-1.2,0,0.56,-4.66,-7.69,15.95,0
0.57,-0.94,-0.04,-5.72,-10.94,-8.59,-0.03,0.43,0.02,-4.14,-3.1,6.24,-0.45,-1.5,-0.94,-1.73,5,7.16,0
0.57,0.26,-1.24,-0.35,5.66,-12.99,-0.63,0.28,-0.13,2.69,-3.59,6.73,-0.3,-1.2,-0.04,1.2,1.58,5.7,0
-0.33,0.56,0.41,3.07,-7.04,-3.22,-0.63,-0.02,0.32,-2.19,3.74,5.76,-0.6,0.6,-0.34,-0.27,9.4,2.28,0
0.12,1.01,-0.34,4.53,8.59,-10.06,-1.08,-1.22,-0.13,-10.49,-2.61,10.15,-0.9,0,-0.64,-2.22,5.98,-5.04,0
-0.48,1.61,-0.64,2.58,-6.06,-4.68,1.02,0.28,0.32,8.55,12.53,-1.57,0.15,-1.65,1.01,7.54,-5.25,0.82,0
-0.33,-0.19,-0.04,-6.7,8.59,-3.22,0.42,0.13,0.92,-3.66,-0.66,-6.94,0.15,0.9,-1.09,-10.52,4.51,1.79,0
0.27,-0.04,0.56,3.56,1.26,2.15,-0.03,-1.07,0.02,6.6,0.81,-1.57,-0.9,-0.75,-0.94,10.47,5.98,-11.39,0
-0.03,-0.04,0.26,-6.21,-11.43,8.5,-0.18,-0.02,0.32,3.18,3.25,-15.73,-0.6,-0.15,0.71,-4.17,17.21,2.28,0
0.57,0.26,-0.34,-8.65,-1.18,-1.27,0.42,-0.32,-1.03,-10.49,-7.01,-5.96,-0.3,0.15,-0.79,-8.57,4.03,5.7,0
-0.78,-0.49,0.41,3.07,1.26,-5.66,0.57,-0.77,1.07,-2.19,-8.47,-3.03,0.45,-0.6,-0.34,3.15,-4.28,-11.88,0
-0.03,1.16,-0.94,6.97,-0.69,1.17,1.02,-0.47,0.62,-16.35,0.81,2.83,-0.3,-0.6,1.01,1.69,-1.35,-3.09,0
0.27,-1.09,1.01,5.51,-7.52,-2.73,0.12,0.28,-0.43,-5.61,12.04,3.31,-0.9,0,-0.19,9.01,-9.16,-7.97,0
-0.03,-0.04,-1.39,-0.84,-4.59,-0.78,0.57,-0.02,-0.13,6.11,6.18,5.76,-0.45,0.3,-0.19,-16.87,-8.67,-8.46,0
1.32,0.56,-0.34,-0.84,1.75,-8.59,0.57,-0.47,1.07,-0.24,-0.66,0.38,-1.05,0.15,0.71,2.17,10.37,1.79,0
0.72,-0.34,-0.19,-16.95,2.24,5.57,-0.18,-0.47,-0.13,-13.91,-1.63,10.64,-0.6,0.9,0.71,-5.15,-7.21,-4.56,0
0.12,0.26,1.16,3.56,0.29,-12.5,0.12,-0.47,0.32,2.2,4.23,6.24,-1.05,-0.15,-0.34,-0.76,2.56,3.26,0
-0.93,0.41,-0.64,0.63,3.71,-11.03,-1.23,0.13,-0.28,-4.63,2.27,-6.94,0.15,0.15,1.01,0.71,6.95,-10.9,0
0.12,0.26,-0.04,-2.79,4.68,1.66,-0.48,-0.32,-1.03,-5.12,-0.17,0.87,-0.45,-0.75,-0.64,2.17,-2.81,-6.51,0
-0.03,0.41,-0.94,-10.12,-0.2,2.64,-0.03,-0.32,0.47,0.74,-4.08,5.27,0.15,-0.6,0.41,-1.73,7.93,-7.97,0
0.12,0.26,0.41,13.32,-7.52,-6.15,-1.23,0.88,-0.28,-3.17,0.32,-0.1,0.3,-0.3,0.11,7.54,2.56,-3.09,0
-0.48,0.41,0.56,5.51,5.17,-12.01,0.12,1.48,-0.88,0.25,-0.17,-3.52,-0.6,0.15,-0.04,10.96,-4.76,6.67,0
-0.48,0.86,1.01,1.11,-11.43,-9.08,-0.18,1.48,-0.13,1.72,0.32,1.36,-1.65,-1.05,0.86,-7.1,11.35,2.28,0
0.27,-0.04,-0.94,0.63,0.78,3.13,1.02,1.03,-0.43,-4.63,3.74,-12.8,-0.3,-0.9,-0.34,-5.64,-10.14,-2.6,0
-0.03,-0.04,-0.94,-0.35,10.54,-4.68,0.42,0.43,1.22,6.6,1.78,2.34,-1.8,-1.65,-0.79,-1.73,-9.16,0.33,0
-0.78,-0.49,0.41,2.58,-6.55,-9.57,-0.48,-1.07,0.02,4.65,10.57,-6.94,-0.45,1.5,-0.94,-1.24,1.1,-0.65,0
-0.03,0.86,1.01,-1.33,-1.18,3.13,0.87,-0.62,0.02,-1.7,-0.66,3.8,-0.3,-0.15,-0.04,3.15,-4.76,-3.58,0
0.57,0.56,0.41,-7.67,-11.43,3.13,-0.63,0.73,-0.88,0.74,11.55,-7.92,0.75,-0.3,0.11,5.1,-4.76,1.3,0
-0.33,1.01,0.41,-0.35,7.61,4.59,0.12,-0.47,-0.13,0.25,2.27,0.38,-0.9,0,-0.19,9.99,0.12,1.79,0
1.17,-0.34,-0.19,-0.35,-7.04,-4.2,0.57,0.73,0.32,-0.24,-2.61,-0.59,0.15,0.15,-1.09,4.61,-4.28,-13.83,0
-1.08,0.26,-1.24,-9.63,-4.11,3.13,-1.08,-0.47,1.07,1.72,0.32,1.36,-0.45,1.05,0.11,3.64,-1.83,-4.07,0
0.72,-0.79,-0.64,2.09,-9.48,-0.29,-0.63,-0.02,0.32,-1.7,11.55,-0.59,0.45,-1.65,0.41,9.01,6.95,-4.56,0
-0.93,-0.04,-0.19,-17.93,-5.08,-5.17,-0.78,-0.32,0.47,8.06,-0.66,1.85,0.15,-0.9,0.71,-4.66,-2.32,6.67,0
-0.93,-0.04,-0.19,-17.93,-5.08,-5.17,-0.78,-0.32,0.47,8.06,-0.66,1.85,0.15,-0.9,0.71,-4.66,-2.32,6.67,0
-1.24,-0.34,0.39,-6.9,-0.48,4.25,1.22,-0.7,-0.43,9.01,1.31,3.59,0.09,-0.78,-0.7,3.85,2.92,5.27,0
-0.04,0.41,1.14,6.28,10.76,-6.98,1.22,0.05,0.62,-6.13,9.61,-5.2,-0.51,0.12,0.2,-1.53,-4.9,5.27,0
-0.49,-0.04,-1.26,-7.39,-3.89,-5.51,-0.28,0.5,0.47,-3.2,1.8,2.12,-0.06,0.87,-0.55,-7.39,-6.85,2.34,0
0.71,-0.79,-0.36,-2.02,4.9,4.25,-0.43,-0.4,-0.13,12.92,5.21,1.64,0.24,-0.18,-0.55,7.75,-4.9,-0.59,0
0.56,-0.64,0.54,10.68,3.92,-7.96,0.17,0.5,0.02,-10.52,-8.95,-5.69,-1.56,-0.03,1.1,-11.29,-0.5,0.39,0
1.61,0.41,0.39,11.16,1.97,-1.61,1.07,-0.25,0.92,6.57,10.58,1.64,-0.36,-0.48,-1.15,-2.01,-7.34,-1.08,0
-1.09,-0.19,-0.96,5.79,2.45,-0.14,0.32,1.1,-2.08,-5.15,-3.09,0.66,-0.66,0.72,-0.4,-0.55,0.96,3.8,0
-0.49,0.56,-0.96,2.86,-0.48,1.81,-0.43,1.1,-0.43,-5.64,0.82,-6.18,0.09,-0.48,0.35,4.82,-9.78,5.27,0
0.56,0.11,-0.21,-3,3.92,3.27,-0.28,-0.25,-0.28,2.17,7.65,10.42,0.69,0.42,0.5,-4.46,12.68,5.76,0
-0.19,-0.19,0.24,7.26,3.92,7.67,0.62,1.7,-1.03,4.13,-3.58,25.07,-0.36,-0.48,1.1,-24.96,3.4,2.83,0
-0.04,0.41,-1.26,-2.02,-4.87,14.51,-1.03,-1,0.47,6.57,-7.48,27.51,-2.16,0.42,-0.55,-4.94,-0.5,-2.54,0
-1.09,0.11,0.54,16.05,11.24,17.43,-0.58,0.95,-0.73,17.8,-22.13,42.65,-0.36,1.02,1.85,16.54,-1.97,-8.4,0
0.71,-0.34,0.39,50.23,15.15,27.2,0.02,0.05,-0.88,18.77,-24.57,30.93,0.09,0.27,1.1,45.84,-36.63,-45.02,0
-1.09,0.56,-0.96,-352.12,100.6,31.59,-0.43,1.1,0.32,-315.21,271.33,107.1,0.24,-0.18,0.2,-121.64,-41.03,-247.17,0
-0.19,-0.19,0.24,0.91,0.01,-3.56,1.22,0.35,-0.13,-8.08,-0.65,15.31,-0.51,-0.18,-0.25,569.27,-251.97,-179.3,0
0.41,0.41,-1.26,6.28,0.99,-1.12,1.37,-0.55,-0.28,-0.76,10.58,0.17,-0.36,1.02,-0.7,4.82,-1.48,-3.52,0
-0.04,-0.34,-0.81,-9.34,-12.68,-4.54,-0.28,-0.25,0.92,-2.22,5.21,-1.78,-0.06,0.42,0.5,-13.24,-1.97,3.32,0
-0.19,-0.64,-0.66,3.35,-1.94,-6.98,0.02,0.35,-0.43,-0.76,-9.92,-2.27,-0.06,0.87,-0.25,12.63,5.85,-5.96,0
0.41,-0.34,0.84,7.75,5.38,1.32,-0.28,0.95,0.47,1.2,-8.46,7.01,-1.11,0.72,0.05,8.24,-6.36,0.39,0
-1.24,-0.34,-0.06,3.84,-1.94,3.76,0.02,0.35,1.37,2.66,-4.06,-8.13,0.09,0.27,0.05,-1.53,18.05,5.27,0
-0.64,-0.64,-0.96,-8.37,-4.38,2.3,-0.88,0.05,-0.88,14.38,-0.16,6.52,0.99,1.62,0.5,-12.76,-7.83,-1.57,0
-0.19,-0.94,-0.21,-7.88,-10.73,13.53,-1.18,0.35,-0.88,3.15,9.61,9.94,-1.26,-0.63,-0.55,2.87,-7.83,-3.03,0
-2.29,1.31,-0.96,4.33,2.94,6.69,0.17,-0.55,0.02,3.15,-4.06,0.17,-1.26,-0.18,0.2,-0.55,3.89,-9.87,0
-0.49,-0.04,-0.81,15.56,-1.45,-9.91,0.17,-0.55,0.02,1.2,-12.36,-18.87,-0.96,0.42,0.95,-4.46,-10.27,0.87,0
0.41,-0.34,-0.06,3.35,1.48,-2.1,-0.43,-1.15,0.62,1.68,0.82,-5.2,0.09,-0.78,0.95,13.61,-4.9,-1.57,0
0.71,0.71,-1.26,18.49,13.68,-4.54,1.07,0.5,-0.28,-8.57,3.75,-4.22,-0.96,-0.18,-0.25,-2.5,-1.97,-0.59,0
-0.94,1.16,-0.81,0.91,-2.43,-4.05,-0.88,0.35,1.07,3.64,1.31,2.12,-0.51,-0.93,-0.25,-10.31,10.24,5.27,0
-0.49,0.41,-1.26,1.4,-3.89,-0.14,0.62,0.2,0.92,2.17,-7.48,1.64,0.69,0.87,-0.25,9.22,-4.41,0.87,0
-0.64,-0.19,0.54,-1.04,-3.4,-6,1.07,0.2,0.92,-0.76,1.8,2.12,-0.96,-0.18,-0.25,0.92,-9.29,-0.59,0
-0.49,-0.34,-0.06,5.79,8.8,7.67,0.02,-0.4,0.32,-1.73,1.8,-6.67,0.99,-0.63,0.2,10.19,8.78,14.06,0
-0.19,-0.94,-0.66,3.84,1.48,2.3,-0.28,-0.55,-1.03,-5.64,-3.09,-5.2,-1.11,-0.03,-0.7,1.89,0.48,-4.5,0
-0.04,0.41,0.39,1.89,5.38,3.76,1.07,-0.25,0.02,-2.71,3.26,-1.29,0.09,-0.03,0.8,1.4,-8.8,-10.36,0
-0.04,0.41,-0.06,-3.97,-1.45,2.79,0.62,-0.25,0.47,1.2,-3.58,-3.74,-0.66,-0.78,-0.4,-6.9,3.89,-2.54,0
-0.49,1.16,-0.06,6.77,-7.31,4.25,-0.28,-0.25,0.47,1.2,5.21,-3.25,0.69,-0.18,0.5,-6.41,-0.5,3.8,0
-0.04,-0.04,-0.06,-4.46,4.9,3.27,-0.58,0.95,0.02,-6.62,-0.16,3.59,-0.96,-0.18,-1,3.36,2.43,-3.52,0
-0.64,0.11,-0.21,3.35,-1.45,4.25,-0.88,0.35,1.07,-6.62,2.77,6.03,0.09,-0.78,-1.15,-2.5,-0.01,2.34,0
-1.69,-1.99,1.14,-5.93,2.45,0.34,0.02,-0.4,-0.43,2.17,1.31,3.59,-0.06,-0.63,-0.25,-5.92,-8.8,-4.5,0
-0.04,1.16,-0.06,2.37,3.43,-10.4,1.07,0.5,0.47,4.13,-3.58,3.59,0.69,-0.63,0.5,0.92,-0.01,6.25,0
-0.04,-0.04,-0.36,3.35,-1.45,3.27,0.32,0.05,0.62,-4.17,-8.46,-0.32,0.69,0.12,-0.25,1.4,6.82,7.22,0
0.56,-0.64,-0.66,4.82,-2.92,10.6,0.17,0.5,0.02,-3.2,4.24,-0.32,-0.96,0.87,-0.55,-9.83,-6.36,19.92,0
-1.24,0.41,0.39,-1.53,-2.43,-8.44,0.02,0.8,-0.88,-0.76,-1.13,-1.29,0.24,-0.18,0.2,13.61,-8.8,-1.08,0
0.11,0.11,0.24,5.3,2.94,-8.44,-0.43,0.05,0.62,-1.73,4.72,-4.22,-0.66,1.02,-0.4,3.85,-10.27,-6.94,0
1.46,1.01,-0.66,-5.93,-10.73,7.18,-0.58,-0.55,-0.28,1.68,2.28,6.52,-0.06,0.42,1.7,2.38,1.94,0.39,0
0.71,1.16,0.39,4.82,-0.96,7.67,-0.58,1.7,-0.28,-7.1,-1.13,5.54,-0.36,-0.03,0.05,1.4,6.82,0.87,0
-0.04,-0.04,0.39,-2.51,-12.68,-6,0.17,0.2,0.02,-2.71,-4.06,0.17,0.24,0.87,0.95,-1.04,-11.73,0.87,0
-0.94,-0.04,-0.06,-1.53,-2.92,6.69,-0.28,0.2,-0.28,3.15,-1.62,-5.2,-0.96,1.17,0.5,-9.34,1.94,-1.57,0
0.11,0.56,-0.96,-4.46,0.5,7.18,-1.03,0.2,0.02,0.71,7.65,-8.62,-0.96,1.62,-0.55,-5.43,-1.97,14.06,0
-1.24,-0.04,0.39,-5.93,8.8,0.34,-0.43,-0.4,0.32,-2.22,-10.41,0.66,-0.66,0.72,-0.4,1.4,-0.01,8.69,0
-1.09,-1.39,-0.66,0.91,4.41,-6,0.02,-0.4,-0.13,15.84,5.7,1.64,-0.06,-0.18,0.2,-8.36,7.31,-4.5,0
-0.64,-0.64,-0.66,0.42,7.83,12.06,-0.28,0.95,1.22,-6.13,-13.34,-1.29,-0.36,-1.08,0.05,1.4,8.29,6.25,0
0.18,1.03,-0.23,-4.72,-6.63,-5.01,-0.41,0.93,-0.33,-0.34,-15.95,5.78,-0.24,0,0.5,-11.83,-9.57,-2.53,0
0.33,1.63,0.67,-15.47,1.18,0.36,0.04,1.23,-1.08,-0.83,-0.82,3.34,0.51,0,-1,-0.6,2.15,-1.07,0
-0.27,0.28,0.52,-2.28,6.06,-2.57,0.49,-0.27,-0.33,0.15,5.53,3.34,-0.99,0,0.05,5.75,1.17,3.33,0
-0.27,0.28,0.52,7.97,-1.26,10.13,0.19,0.33,-0.48,-0.83,2.11,-3.01,0.36,-0.15,-0.1,-5.48,-7.62,-2.53,0
0.03,-0.02,-0.53,-1.8,-4.19,4.76,-0.41,0.18,-0.78,-11.57,-11.56,-3.01,1.56,0.9,-0.1,-3.04,-3.71,-4.49,0
0.18,-0.47,-0.23,1.13,1.18,7.69,0.19,1.08,-0.48,-2.29,-11.56,2.85,0.36,0.9,-0.1,-2.06,-2.73,-16.69,0
-0.27,0.28,0.52,-14,-6.63,8.18,0.04,0.48,-0.03,-1.31,8.46,-11.8,-0.54,-0.75,0.05,14.05,-14.45,-13.27,0
0.03,-0.32,-0.08,-5.7,-0.77,-28.44,1.09,0.03,0.27,30.91,-6.19,-9.36,-0.24,1.05,0.8,34.07,-6.64,-13.76,0
0.18,1.03,-0.23,-93.1,-30.07,1.83,-0.11,0.03,-0.18,-20.84,48.5,-40.61,0.21,0.3,0.5,31.14,-24.22,-87.49,0
0.33,-0.32,-0.08,-230.31,-79.88,84.84,0.04,0.48,0.42,131.01,-18.4,135.18,0.36,-0.15,0.65,365.13,160.84,60.46,0
0.78,0.43,1.12,-17.42,18.76,13.06,1.54,0.78,1.77,-44.28,20.67,26.29,0.81,0.45,0.2,-65.05,-4.69,-21.09,0
0.63,0.58,0.07,-17.91,8.01,-18.68,-0.41,1.23,0.87,22.61,33.36,725.02,1.11,0.15,0.2,-23.54,25.1,-6.93,0
-1.32,1.18,0.67,26.04,14.36,74.09,1.69,0.18,0.42,148.59,-104.33,257.25,0.21,0,2.3,59.46,-55.96,-313.08,0
-0.27,-1.37,0.07,531.41,-118.45,-1991.33,-1.16,-0.57,-0.03,-859.71,463.05,-172.44,0.36,0.9,0.95,260.15,-233.2,-910.74,0
0.33,0.88,-0.08,62.17,-93.55,-117.31,0.19,0.03,-0.18,-41.35,29.46,-37.19,0.21,-0.45,0.05,80.46,-19.82,-65.52,0
0.18,-0.17,1.27,8.46,4.11,-12.33,0.94,0.48,-0.78,0.64,5.53,9.2,-0.54,0,-0.25,-9.87,5.57,-4.97,0
-0.42,-0.02,1.57,-10.58,1.67,-6.96,-0.41,-0.27,-1.08,0.15,9.93,7.25,-0.54,-1.5,0.8,3.31,-1.27,0.89,0
0.63,0.28,0.52,2.11,-0.77,5.25,0.19,-1.47,-0.18,3.08,3.58,0.9,0.06,-0.15,0.2,-9.87,-4.69,13.09,0
-0.27,-0.17,0.07,0.65,8.01,0.36,-0.41,0.18,-0.33,-0.83,5.04,-5.94,1.11,-0.9,-0.1,6.24,3.13,2.35,0
-0.72,-0.17,1.27,1.13,1.67,-25.51,0.19,-0.42,0.57,2.59,-0.33,-3.5,1.41,1.5,0.05,-2.06,9.47,-7.9,0
-0.72,0.58,0.97,-1.8,9.97,3.29,-0.71,0.93,0.42,8.45,4.07,-8.38,-0.39,1.65,-1.6,10.64,6.54,0.4,0
0.33,0.43,-0.83,4.06,-6.15,-8.42,-1.01,0.78,-0.48,-2.29,1.14,0.9,-0.99,0.75,0.5,4.78,-3.71,-8.88,0
0.03,-0.32,-1.28,-11.56,4.6,-0.12,-0.11,-0.72,-0.18,5.03,-5.21,1.39,-0.24,0.3,0.5,-7.43,9.47,-5.95,0
0.03,0.43,0.37,12.85,8.5,7.2,-1.01,0.33,-0.93,1.13,8.95,3.34,-0.24,-0.75,-0.25,3.8,3.13,-1.56,0
0.33,-0.77,0.37,12.85,7.53,-2.08,0.64,0.03,0.27,-6.68,-10.09,5.29,0.21,0,-1,-9.87,9.96,8.21,0
0.93,1.03,-0.23,-1.8,0.69,-5.5,-0.41,0.93,-0.33,1.62,-5.21,-8.38,-0.84,0.15,0.2,-7.92,-10.55,-0.09,0
0.63,1.03,0.97,2.11,0.2,7.69,0.94,1.23,-0.33,1.62,3.09,-0.57,0.36,-0.15,-1.3,-2.06,1.17,2.84,0
-1.02,-0.17,0.07,-4.24,0.2,-2.08,1.09,0.33,-0.93,3.08,-1.79,-4.47,0.51,0.3,-0.25,-6.45,-5.66,-10.83,0
-0.72,1.03,-0.23,0.16,-10.54,1.83,-0.56,-0.42,-0.18,-6.2,-1.79,-1.05,-0.24,0.75,-1,-9.87,10.94,3.82,0
1.68,-0.77,1.57,-9.61,-2.24,-7.45,0.19,0.03,-1.23,7.96,2.6,-0.08,0.21,-1.05,0.05,0.38,11.92,5.28,0
-0.42,-0.02,-0.68,2.11,-2.24,6.22,-0.41,0.93,-0.33,-0.83,2.11,-3.01,0.81,0.15,0.2,-6.94,1.17,-2.53,0
-1.32,0.43,-0.08,2.6,0.69,-9.89,0.49,0.48,0.42,-1.8,-6.68,-12.77,-0.99,-0.45,0.05,0.87,-1.27,6.74,0
-0.27,-0.92,-0.68,-2.28,8.5,2.32,1.54,0.03,-0.48,7.48,4.07,-4.47,0.06,0.15,-0.1,0.87,-1.76,2.84,0
0.63,-1.37,-0.68,1.13,-8.59,2.32,-1.01,-0.42,0.57,-2.78,8.95,-0.08,0.51,0,-0.25,3.31,1.66,0.4,0
-0.72,0.58,0.07,2.11,7.04,10.13,0.19,-0.42,0.57,1.13,-1.31,3.34,1.11,0.15,-0.1,-0.6,0.2,10.65,0
0.78,-1.52,-0.08,-2.28,13.39,4.76,-0.11,-0.42,1.32,1.62,4.55,2.85,0.51,0.3,-0.7,-1.08,-1.76,-12.79,0
0.03,-0.32,-0.08,-5.7,-1.26,7.69,-0.11,-0.42,1.02,-9.61,-1.31,1.39,0.51,0.3,0.8,1.36,11.43,-11.32,0
0.03,1.18,0.37,12.36,3.62,10.62,0.04,0.18,-0.03,-6.2,6.02,9.2,0.36,0.15,0.2,1.85,6.06,6.74,0
-0.72,-0.17,-0.23,5.53,9.48,-5.01,0.19,-1.17,-0.48,7.96,9.44,-2.52,-0.24,-0.75,-0.25,0.38,-3.71,3.33,0
0.33,0.43,-0.53,6.02,1.67,0.85,1.09,-0.42,-0.48,-11.08,2.6,-7.89,0.81,-0.15,0.95,9.17,5.57,-13.76,0
-1.47,-0.47,0.07,-3.75,5.57,4.76,0.49,0.93,-0.03,-5.22,9.93,-5.94,0.81,0.9,-0.85,0.87,1.17,3.82,0
-0.72,0.28,-0.23,2.6,-0.77,6.71,-0.11,-1.17,-0.48,-6.68,-3.75,1.39,0.21,0.75,0.5,-2.06,6.54,-10.34,0
-0.72,0.28,0.52,0.16,-7.12,2.32,-0.11,0.33,-0.48,-1.31,3.58,-1.05,-0.39,0.15,0.65,2.82,14.36,-7.9,0
1.38,0.58,0.07,-2.77,3.13,-5.5,0.49,0.48,-0.03,0.15,7,3.83,0.96,0.3,-0.7,-0.6,-1.76,7.72,0
0.03,0.43,-0.83,6.51,-1.26,-1.1,-0.11,0.78,0.27,2.1,-5.7,5.78,-0.84,1.2,0.65,-10.36,5.57,1.37,0
0.63,1.03,0.52,4.55,0.2,2.32,0.04,0.18,-0.33,6.5,-11.56,-3.98,-1.44,0.75,0.5,6.24,-10.55,-7.42,0
0.63,-0.47,-0.23,-3.26,-2.24,-3.54,-0.71,0.48,-0.78,3.08,0.65,2.36,-1.14,0.45,0.65,8.19,1.66,-2.04,0
0.93,0.28,-0.23,0.16,-3.22,3.29,-0.41,0.48,1.17,5.52,4.55,7.73,0.06,0.45,-0.55,4.78,2.15,1.37,0
0.63,0.58,-0.23,7.48,14.36,-3.54,0.19,0.78,0.27,3.08,-9.61,9.69,0.36,0.9,-0.55,2.33,9.47,4.3,0
0.33,-0.32,-0.08,-0.33,-4.68,-5.98,-0.71,0.93,-0.03,1.13,0.16,-3.01,0.96,-0.45,0.8,0.87,11.92,1.37,0
0.77,-0.41,-0.83,4.4,-1.93,-8.25,1.63,-1.37,1.1,-1.85,-5.11,-1.64,-1.08,-0.75,0.2,-2.93,4.86,-10.19,0
-0.88,-0.41,-0.53,-2.92,-10.23,6.89,1.48,-0.02,-0.55,1.08,-7.06,-8.97,-1.23,0.45,-0.4,2.93,-8.82,-11.16,0
0.02,-0.86,-1.58,7.33,11.26,-1.41,-0.02,0.43,0.35,4.01,7.59,-4.57,-1.68,-0.6,0.8,13.19,6.81,4.95,0
0.62,-0.56,0.52,13.19,9.79,-4.34,-0.17,0.73,-0.25,9.87,0.26,-6.04,0.12,-0.45,0.65,2.44,-5.4,-4.33,0
0.02,-1.16,-0.08,3.42,4.91,3.47,1.18,-1.82,-0.1,-1.85,-2.18,2.75,-1.08,-0.75,0.95,1.47,-5.4,5.93,0
0.32,-0.86,-0.08,-4.39,-3.39,-7.27,0.88,-0.62,-0.1,-5.76,-13.9,-19.71,-0.33,-0.45,-0.85,6.84,-4.42,-14.09,0
0.77,0.79,0.37,1.47,1,-0.93,0.58,0.28,0.2,10.36,-10.48,-19.22,-0.63,-0.45,-0.1,-16.11,-3.44,3.48,0
-0.28,-0.26,-1.13,7.33,20.05,6.4,-0.02,-1.07,-0.1,-9.17,3.19,43.77,0.42,-0.75,0.2,-11.72,4.37,36.2,0
0.32,-1.16,-0.08,25.89,20.53,15.68,-0.62,-0.47,0.2,-5.76,1.24,-14.83,-0.03,-1.35,-0.4,39.06,-40.07,-98.08,0
0.32,0.34,1.57,7.82,-30.25,-89.79,1.03,-0.02,-0.55,17.68,-19.27,7.64,1.47,0.15,-0.4,-69.33,38.55,155.34,0
-0.43,-1.16,0.37,42.49,31.28,93.8,0.43,0.13,0.35,13.78,-2.18,-1.15,0.12,-0.45,0.95,5.86,-14.67,-54.13,0
-0.73,-0.26,0.52,-7.32,3.93,160.21,1.63,0.43,-0.1,-30.66,-88.61,392.89,0.42,-0.75,-0.1,-102.05,50.27,173.89,0
0.02,-0.86,-0.53,129.89,52.27,188.04,1.18,-1.07,0.35,15.24,-73.96,103.34,0.27,-0.6,-0.4,449.71,-340.85,-880.79,0
-1.78,-1.61,-0.08,142.1,-91.28,46.93,-0.62,-0.77,0.2,67.98,-85.68,133.61,-0.93,0.45,-0.4,-162.6,181.61,558.17,0
-1.33,1.84,-2.03,227.06,-3.88,-213.33,-1.22,0.13,-0.85,-165.42,-20.25,501.29,-0.48,-1.65,-0.4,-774.41,-239.28,-634.7,0
-0.88,1.54,-2.03,105.48,47.88,-26.81,-1.07,-0.02,-0.25,317.49,-166.73,26.19,-0.93,-0.6,-0.4,802.74,145.48,309.64,0
-2.08,1.09,-0.08,11.73,11.26,-4.34,0.58,-0.02,-1,43.07,-12.92,-8.48,-1.83,0,0.65,21.98,14.62,27.9,0
-1.33,1.84,-0.08,19.54,9.3,-16.55,-0.47,-0.32,-0.4,25.01,2.22,5.19,-1.08,0.3,0.2,7.33,5.35,4.46,0
-2.38,0.94,0.07,23.44,20.05,1.03,-1.22,0.43,-0.1,15.24,11,4.71,0.12,1.05,1.7,10.26,5.35,1.53,0
-1.33,0.79,-0.83,23.44,14.67,-9.23,-0.77,0.13,-0.4,19.15,9.05,2.26,0.72,0.45,0.05,16.6,17.06,-2.86,0
-0.73,1.39,-1.13,4.89,23.95,-12.16,-0.02,-0.62,-0.85,19.15,10.03,3.24,0.27,0.15,0.8,12.7,10.23,-6.28,0
-1.48,0.94,-1.43,6.84,22.98,-33.64,-1.22,0.43,-0.85,12.31,22.72,7.64,0.12,1.8,0.2,5.86,19.99,-10.19,0
0.02,2.29,1.57,-5.85,16.14,-64.4,-0.77,-0.32,0.35,10.36,15.89,0.8,0.87,0,1.7,11.23,-8.82,-30.7,0
-1.48,0.94,-0.23,10.75,21.02,-1.9,-1.07,-0.47,-0.25,-11.61,21.75,-7.5,0.42,0.3,0.95,10.74,0.95,-22.39,0
-0.43,-0.11,-1.28,-12.2,13.7,174.85,-1.37,0.28,-0.55,-6.73,3.19,-12.87,0.72,1.65,1.55,30.76,-1,-13.12,0
-0.43,1.09,-0.83,4.4,-4.86,231.5,-1.22,0.43,0.35,29.89,-5.6,-18.73,-0.63,1.5,0.2,-55.17,36.6,82.1,0
0.92,0.94,0.07,-304.68,62.04,-155.22,-0.17,-0.02,-0.25,181.74,-56.87,212.23,1.02,0.9,0.35,-359.37,56.61,109.93,0
0.02,-0.41,-0.53,415.53,-156.22,-632.76,-0.17,0.28,-0.25,-1180.07,165.79,335.27,0.87,-0.45,-0.1,875.98,82.49,-1607.36,0
-0.73,-0.56,0.07,6.84,1.98,-2.39,-0.47,0.88,0.35,2.06,-10.48,7.15,0.27,0.9,-0.4,-48.34,5.35,-60.97,0
0.62,0.19,-0.23,9.28,-6.81,-12.16,-0.02,-0.62,-0.1,1.57,-6.09,-2.13,-0.33,0.3,0.65,1.47,-4.91,-0.42,0
-0.88,-0.41,0.37,6.35,18.09,2.49,0.13,-0.02,0.2,1.57,0.26,7.15,0.12,1.05,-0.55,0,1.93,-2.86,0
0.02,1.09,-0.83,1.47,14.67,2.98,0.88,-0.62,-0.4,0.1,-0.23,1.29,0.72,0.15,-0.4,-5.86,-1,0.55,0
0.02,0.79,-0.83,-1.46,-7.79,-7.27,0.13,-0.02,0.5,-15.52,5.63,-5.06,-0.93,0.45,1.1,-2.93,-2.96,0.07,0
-0.43,-0.11,-0.08,-1.46,6.86,10.3,-0.47,-0.32,-0.85,-3.8,-14.39,6.66,1.32,0.3,-1.3,1.96,-15.65,2.02,0
0.02,1.09,-0.53,-3.9,9.79,11.28,-1.97,-1.07,-0.1,-0.87,-13.9,-7.01,0.12,-0.45,1.25,7.33,-1.49,-0.91,0
-0.73,-0.56,-0.23,-11.22,7.35,-4.83,-1.97,0.13,-0.4,1.08,-3.16,-0.18,-0.93,0.15,-0.4,6.35,1.93,1.04,0
-0.28,-0.56,0.07,0.49,-1.93,6.4,0.13,0.28,-0.55,3.03,-9.99,5.19,0.27,0.15,-0.7,-3.9,3.88,-9.21,0
-1.03,-0.26,0.07,0.01,-3.39,2.98,1.18,-0.62,-1.15,-18.94,3.19,4.22,-0.03,0.15,0.05,-0.97,4.86,-4.33,0
0.62,-0.56,0.07,2.45,-3.88,4.93,0.13,0.28,0.5,0.1,-6.57,12.52,-0.03,-1.35,0.8,-3.42,-10.77,8.86,0
-0.43,-0.11,-0.08,0.98,-1.44,-5.32,0.13,0.73,0.2,-2.34,2.22,2.75,0.27,-0.6,0.05,-3.42,4.37,-10.68,0
0.62,0.94,0.97,3.91,1,9.33,1.03,-0.02,-0.55,4.99,0.26,-9.45,-0.93,0.45,-0.7,-3.42,-2.96,-5.3,0
0.62,0.94,0.07,-19.52,4.42,-4.34,-0.77,0.13,-1.6,-2.83,0.26,-2.62,0.27,-0.15,-0.7,8.3,1.44,7.88,0
-1.33,0.79,-0.53,3.42,2.96,9.82,-0.77,0.43,-0.85,8.89,-1.2,-1.15,0.12,-0.45,-0.1,5.86,-6.37,0.55,0
-0.43,0.79,0.67,-9.76,-4.86,-11.18,-0.47,-0.32,-0.85,5.48,2.7,-5.06,-0.48,0.45,0.05,3.42,7.3,2.51,0
0.17,-1.01,0.07,-0.97,2.47,2.49,-0.17,0.28,0.2,-5.76,1.73,-3.6,-0.63,-0.45,0.95,1.96,1.44,-5.79,0
-1.48,-1.46,0.52,2.94,7.84,-3.37,-0.02,-1.07,-0.4,-17.96,2.22,-2.62,1.32,0.3,-1.3,7.33,-1,-3.84,0
-0.73,-0.26,-0.68,-4.88,-3.39,5.91,-0.17,-0.02,-0.55,6.94,4.17,-6.52,0.87,0.75,-0.1,-6.83,-1.98,-17.02,0
0.17,0.49,-1.13,1.47,-0.46,-2.88,-0.17,0.28,0.5,4.99,6.12,2.75,-0.48,-0.15,0.05,-5.37,4.37,-2.37,0
-0.88,0.34,-0.53,2.94,-15.6,-4.83,-0.17,-0.47,-1.3,-1.85,-0.23,2.26,0.27,-0.15,-0.7,-2.93,-6.86,-3.84,0
1.37,0.94,-0.23,9.28,-10.72,-3.37,1.18,-0.62,-0.85,1.57,1.73,-6.52,-0.03,0.9,0.05,-6.83,4.86,7.39,0
-0.27,0.15,-0.56,4.3,-3.61,-1.29,-0.11,-0.18,-0.76,2.53,10.3,5.46,0.4,1.56,-0.7,-3.1,-4.23,1.66,0
0.78,-0.9,0.94,-0.09,-1.66,-1.29,-0.11,-0.63,0.44,-8.21,0.05,-6.26,0.25,-0.39,-0.55,0.32,0.65,-2.24,0
0.33,0,0.04,-3.02,-5.56,0.18,0.49,-0.33,-0.16,3.02,-2.39,5.95,1,-0.39,-0.55,-9.44,7.49,3.13,0
0.33,-0.45,-0.26,11.63,-3.61,3.11,1.09,-0.18,-0.76,6.93,7.86,2.53,-0.35,-0.24,0.35,9.6,-4.23,-1.27,0
-0.27,0.15,-0.11,-4,2.25,4.57,0.49,-0.33,0.59,6.44,-0.93,1.06,-1.25,-0.54,-2.2,0.32,0.16,-9.57,0
-0.57,0.75,-0.71,2.84,-6.05,-7.15,-1.16,0.42,-0.16,-2.84,-5.32,-7.24,0.7,0.06,0.8,2.28,-12.53,-4.2,0
-0.27,-1.05,-0.56,-15.72,-2.64,-4.7,0.64,0.12,-0.01,5.46,0.05,-5.28,-0.35,-0.24,-1.45,8.62,1.63,-10.06,0
0.18,0.45,-1.61,1.86,-10.45,-4.22,-1.01,0.87,-0.01,2.05,0.54,-19.93,0.25,-0.39,0.5,2.76,0.16,14.36,0
0.78,0.3,0.04,14.07,-11.91,-13.49,0.04,0.72,0.59,5.95,-19.97,8.39,-0.05,0.51,-0.4,-27.51,20.18,57.82,0
0.33,0,-0.26,3.33,8.11,54.87,-0.56,-0.63,-1.06,-1.37,-2.88,76.75,0.25,0.36,0.2,-21.65,9.93,10.45,0
0.18,-0.3,0.34,-2.04,12.99,74.4,-0.56,-0.63,-0.01,-23.34,42.53,-78.04,1,-0.09,0.2,67.22,-51.11,-172.17,0
0.33,0,0.94,-19.13,53.52,16.29,-0.11,-0.18,0.89,11.32,-48.78,414.15,-0.35,-0.24,-0.7,-33.86,49.97,204.3,0
-1.32,0.75,1.24,79.99,90.63,133.48,-0.11,-0.18,-0.01,98.24,5.91,11.81,-0.35,-0.99,-1.15,58.43,-44.76,-277.15,0
0.48,-0.3,0.64,493.07,41.31,368.83,0.34,-0.18,-0.01,186.13,-169.87,180.26,-0.05,-0.99,0.05,-289.72,35.32,144.24,0
0.33,0,-0.71,5.77,-3.12,-3.73,-1.31,-0.18,-1.81,2.53,-1.9,-46.3,0.25,-0.39,0.95,12.53,-9.6,-3.71,0
0.18,-1.05,0.64,-1.07,9.08,2.62,-1.01,-1.68,-0.01,4,-7.28,2.04,-0.65,-0.39,-0.25,-7.98,-13.02,1.17,0
1.38,0.9,-0.56,-5.46,-8.01,-1.29,0.34,-0.18,-0.01,-8.21,-4.83,-8.7,0.7,0.06,0.05,-4.07,-13.51,-3.22,0
-1.77,0,-0.26,-1.56,5.18,9.46,0.34,-1.38,0.89,-12.11,-0.93,13.76,-0.35,0.51,0.05,-8.95,0.65,-3.22,0
-0.27,-0.3,1.54,-0.58,1.76,9.46,-0.11,-0.18,-0.31,11.81,7.86,3.5,-1.25,0.06,-0.4,1.3,0.16,-5.17,0
0.33,0.75,-0.26,5.28,-0.19,10.92,-0.11,0.12,0.44,0.58,8.35,0.57,0.4,1.26,0.05,-0.17,-4.23,0.69,0
-0.57,0.75,0.49,-9.37,-5.56,-20.82,0.49,-0.33,0.29,5.46,4.93,-21.89,1,-0.84,-1,-1.14,2.6,8.5,0
0.78,-0.45,1.69,3.82,17.38,-5.68,0.34,-0.93,0.44,-7.72,5.91,6.92,0.4,-0.54,-0.4,30.6,-16.44,-36.91,0
0.93,-0.3,0.64,-1.07,4.69,-1.29,-0.11,-0.18,-0.01,8.88,-0.93,-2.36,1.3,0.36,0.95,-3.58,7.49,-5.66,0
0.33,-0.45,-0.26,-3.51,-7.52,-2.75,0.34,0.57,-0.01,7.42,0.05,1.55,-0.35,0.06,0.35,-6.51,-0.33,-8.59,0
2.13,2.4,1.09,-6.44,8.6,10.43,-0.41,-0.78,0.29,0.09,-7.28,-3.82,-0.65,0.36,0.95,0.81,-3.75,8.99,0
0.18,-1.05,1.09,4.79,6.15,10.92,-0.71,-0.03,-0.16,3.02,8.35,4.48,1.15,-0.24,-0.4,1.3,-13.51,1.17,0
-0.27,0.9,-0.11,1.86,-1.66,6.53,1.24,-0.03,-0.16,1.56,-3.37,2.04,0.4,-0.24,-0.4,-7.49,-14,-1.27,0
-0.12,-0.9,-0.26,12.6,8.6,1.64,-1.01,-0.93,0.44,-1.37,3.47,6.92,0.25,-0.39,0.5,6.67,5.04,-3.71,0
0.33,0.75,0.49,2.35,7.62,-0.31,-1.16,-0.78,-0.46,-0.4,-12.16,-9.19,1,-0.09,-1.3,-2.61,0.65,9.48,0
-0.12,0.75,-0.26,14.56,0.78,0.18,0.49,-1.08,-0.16,-6.25,0.54,-1.87,0.25,0.96,0.95,-0.65,9.44,-4.2,0
-0.72,0.15,0.64,-6.93,-6.05,4.09,0.94,-0.03,0.29,9.86,-0.93,-3.33,-0.65,-0.39,0.2,-14.33,-1.3,-15.43,0
0.33,0.75,-0.26,2.84,4.69,5.55,0.49,-0.78,0.59,2.05,-5.81,4.97,-0.05,-0.24,-1.15,-9.93,-11.56,-4.2,0
-0.57,0.75,0.04,1.37,4.2,-1.29,0.34,0.12,0.89,1.56,0.54,2.53,0.55,0.36,-0.25,-1.63,-8.63,4.1,0
1.38,0.45,0.64,3.82,20.31,-5.19,-0.41,0.42,1.04,-1.37,4.93,4.97,1,0.66,0.5,-1.63,6.02,-4.2,0
-0.27,0.45,-0.56,-0.09,2.74,-1.77,-1.31,-0.18,0.44,2.05,-11.18,3.99,1,-0.39,0.2,-13.35,-6.67,4.59,0
0.33,-0.45,-0.26,0.89,8.11,11.9,0.04,-0.03,0.29,8.39,-10.21,-6.75,-0.8,2.01,-0.4,1.3,-12.53,4.59,0
-1.77,0.3,-0.26,-6.93,-4.59,2.62,0.49,-0.03,-0.16,-3.33,-9.72,-1.38,-0.2,-0.09,0.2,7.65,4.56,1.66,0
-0.72,0.45,-0.86,11.14,-0.19,-4.7,-0.71,0.42,-1.21,-7.72,-7.28,1.06,-1.4,-0.39,-0.55,-5.54,-0.33,-4.68,0
-0.57,0,0.94,-3.51,-1.17,0.67,0.64,-0.18,-0.31,3.51,-10.69,-5.77,1.15,0.06,-0.4,1.79,-1.79,-1.27,0
0.18,-0.6,-0.56,4.79,10.06,-2.26,-0.11,-1.38,0.44,3.02,3.96,-3.33,-0.8,-0.24,0.05,1.3,-2.28,8.5,0
0.18,1.35,-1.61,0.89,3.71,5.06,0.34,0.12,0.89,5.95,-5.32,-3.33,0.25,-0.09,-0.55,-14.33,-0.82,-5.17,0
-0.12,0,0.49,-2.04,-1.66,-0.8,0.04,-0.03,-0.16,6.93,1.03,-1.87,0.7,1.26,-0.7,-0.65,11.88,-6.64,0
-0.72,0.15,0.64,1.86,-4.1,-8.12,0.04,-0.33,0.59,4.98,1.51,-17.98,0.4,0.81,0.35,9.6,1.14,-5.66,0
0.18,0.9,-0.56,2.84,1.27,-3.24,-1.31,-0.63,-0.01,0.09,2,-4.31,1.3,-0.84,0.2,-7.49,-4.23,13.87,0
0.48,-0.6,-0.86,-3.51,-3.12,2.13,0.04,-0.03,1.04,-2.84,4.44,-4.31,-0.8,-0.54,0.8,-7.49,-6.19,8.5,0
-1.32,-0.9,0.49,-8.88,-8.01,-0.31,-0.41,-0.33,-1.21,-8.7,2.98,10.34,-0.2,0.36,0.2,-11.4,6.51,-1.27,0
-0.87,1.05,-1.46,2.84,14.94,1.64,0.04,-0.33,0.29,3.51,-4.83,2.04,0.25,-0.09,-0.55,-6.51,-8.63,15.82,0
-0.57,0.75,-0.26,6.26,-8.98,1.16,-0.11,-0.18,-0.01,11.32,3.96,3.02,-0.35,0.06,0.8,-0.65,-0.33,10.94,0
-0.12,-0.45,0.94,-7.42,-1.17,7.02,0.34,-1.38,1.19,0.58,-5.32,-5.28,0.55,-0.09,0.2,7.16,-12.05,3.62,0
0.78,0.3,-0.26,-14.25,-10.45,-1.29,-1.01,0.12,1.64,7.42,9.81,-2.84,-0.2,-0.84,0.5,-3.58,-5.21,-11.52,0
-0.17,0.61,-0.78,-5.06,7.9,-0.82,-0.83,0.19,0.7,-0.77,-3.09,-8.28,0.38,-0.15,0.19,0.69,-1.05,5.23,0
0.88,-0.44,0.27,-10.92,-14.56,-2.29,-0.38,-0.56,-0.5,-2.72,5.21,-3.89,0.98,-0.3,0.34,-6.15,-3.49,0.35,0
-0.17,0.61,0.42,-7.99,-0.89,-8.15,-0.38,-0.86,0.25,-16.88,0.33,-2.42,-0.82,1.35,0.94,-0.78,-10.82,-2.09,0
-0.32,0.31,0.27,-13.36,-13.1,10.9,-0.83,0.64,-0.2,-1.26,-3.58,3.44,0.38,1.35,-0.56,-4.19,-1.54,-13.32,0
0.88,-0.44,1.02,3.24,-9.19,2.59,-0.53,0.49,-1.85,-3.7,0.33,2.46,0.08,-0.9,0.49,-0.78,3.34,-4.05,0
0.43,0.01,-0.18,-6.53,-10.65,-11.57,-0.53,0.04,-1.1,-0.77,10.1,-7.79,0.38,-0.9,-0.56,-7.61,3.34,9.14,0
-0.92,1.36,-0.78,-3.6,-1.38,3.57,-1.13,0.64,0.25,1.67,-1.13,-5.35,-0.22,0,0.34,-9.56,14.09,20.37,0
-1.37,0.16,-0.78,-20.2,-2.35,-17.91,0.22,0.79,-1.1,-2.72,-7.97,17.11,0.98,0.45,0.34,-9.08,-2.51,2.3,0
-0.32,-0.74,-0.63,-28.5,33.29,-47.7,0.07,-1.31,0.25,-18.35,40.37,-44.41,0.38,1.35,0.94,27.06,-21.56,-60.69,0
0.43,0.76,0.27,48.16,5.46,48.98,1.27,-0.11,-0.2,2.65,-10.9,81.56,0.53,0.75,0.79,-24.21,-14.72,-82.66,0
-0.62,1.36,1.17,-12.38,9.85,-35.49,0.22,0.79,0.4,-17.86,23.77,-45.39,0.53,0,1.09,-11.52,-20.58,-45.55,0
0.13,0.76,0.27,-13.36,-1.38,-7.66,-0.23,0.49,1.15,-8.58,24.74,1.49,-0.52,0,0.34,-10.05,-7.89,-14.79,0
1.03,0.91,-0.33,-28.5,0.58,-9.12,-0.53,0.79,1.15,2.65,10.1,-10.72,0.23,0,0.34,-10.05,6.27,-1.6,0
1.03,-0.59,0.42,-5.06,2.04,3.57,-0.38,0.94,-0.5,-1.75,-2.11,15.65,0.53,0.45,0.79,7.53,-6.42,4.25,0
1.48,-1.04,-0.03,15.45,-8.21,6.01,-0.38,-0.11,0.25,22.67,-26.53,15.65,0.53,0.45,-0.41,76.86,-31.32,28.18,0
0.43,0.76,-0.93,8.12,33.78,248.69,0.07,0.64,1.45,-10.05,-92.93,-82.99,0.38,-0.15,0.19,249.22,-107.98,-269.18,0
-0.62,-0.59,0.87,-58.77,-308.02,-264.5,-0.53,-0.26,-0.35,-1537.39,2178.49,-2989.72,0.83,0.9,0.94,532.43,-858.96,-2545.06,0
0.28,0.61,-0.03,2.75,-6.26,0.64,0.22,0.04,0.85,4.6,4.24,15.16,0.23,1.2,0.79,-0.29,5.79,3.28,0
-0.32,0.01,0.27,3.73,-5.77,-8.15,0.22,-0.26,0.4,6.55,0.82,6.86,-0.22,0,0.79,-11.52,-0.56,-5.02,0
1.48,-0.59,-1.23,7.15,3.02,2.11,0.22,-0.71,-0.35,-7.61,8.14,0.02,0.38,-0.15,0.94,5.57,1.88,0.35,0
0.88,-0.74,0.27,3.73,-7.72,14.31,-0.23,0.79,0.1,-3.7,11.07,-3.4,0.83,-0.15,0.19,10.94,1.88,3.77,0
0.13,0.01,0.57,-7.99,-7.24,1.13,-0.38,-0.56,-0.2,5.58,-0.65,3.44,0.53,-1.05,-0.41,6.06,5.3,3.77,0
-0.77,1.51,-0.63,-2.13,-7.24,6.5,0.52,0.64,-0.2,1.67,4.72,8.32,0.08,0.3,0.49,11.43,-4.96,-2.09,0
-0.62,-0.14,1.62,-13.36,-4.79,0.64,-0.83,0.64,0.7,4.6,-2.6,-8.77,0.98,0,1.39,-7.61,3.34,-1.12,0
0.13,-0.74,0.57,9.59,4.48,8.45,0.82,-0.11,-2,-26.65,-3.58,8.81,-0.37,0.3,0.19,10.45,4.81,12.07,0
0.43,0.31,0.57,2.75,5.46,-10.1,0.07,-0.56,0.7,11.44,3.75,4.9,0.98,0.75,1.09,1.67,-3.98,-3.56,0
-0.62,-0.59,0.42,8.12,10.83,-5.22,-0.23,-0.71,-1.4,1.18,0.82,7.35,0.83,0.6,-0.26,1.18,1.88,-2.58,0
-0.77,0.31,0.27,-9.94,3.02,8.45,0.22,-0.26,-0.35,-16.88,9.61,7.83,0.38,0.3,0.49,-12.98,-5.93,-8.93,0
0.43,-0.44,-0.18,3.73,-8.21,0.64,0.52,0.19,-1.25,6.06,-3.09,-7.79,0.23,-0.6,-0.41,-4.68,8.23,7.18,0
-0.92,-0.59,0.42,7.64,-3.33,-4.24,-0.83,-0.56,0.25,-5.17,2.28,-7.79,-0.22,0.75,1.09,-5.17,16.53,0.35,0
-1.22,-0.44,0.57,-3.6,4.48,-8.15,-0.83,0.19,-0.5,-2.24,4.24,-1.44,-1.42,0.45,0.79,-6.15,-1.54,-6.49,0
0.13,0.01,0.57,-13.85,-4.31,-17.42,0.52,0.19,-0.5,-6.63,10.58,5.39,-0.22,1.5,-0.71,8.99,-7.4,10.6,0
-0.32,-0.44,1.47,-2.62,1.06,6.99,-1.58,0.94,0.7,2.16,-2.6,-1.93,-0.97,0.75,0.04,3.62,3.83,-1.6,0
1.03,0.16,1.17,-3.11,-12.61,14.31,0.07,0.64,-1.7,-0.77,5.7,3.44,-0.22,-0.3,-0.41,3.62,2.86,-7.46,0
0.13,0.31,0.57,9.59,7.9,-2.29,-0.38,-0.56,-0.5,4.6,3.26,-4.37,0.53,-0.6,0.04,-0.29,2.37,-3.07,0
0.43,0.31,-0.18,5.68,-8.7,6.01,0.07,0.94,0.25,1.67,8.14,0.51,-0.82,0.3,-0.26,-7.61,-2.03,-3.07,0
0.28,-0.14,0.42,-1.15,0.09,-1.8,-0.83,0.94,-0.5,1.67,-8.46,-1.93,0.53,0,-0.41,-2.24,4.81,-13.81,0
-0.62,0.16,-0.03,-4.08,0.09,-3.26,1.12,0.04,-0.65,2.65,7.65,4.9,-1.12,1.35,-0.26,-1.26,-6.91,6.7,0
-0.17,-1.04,1.17,16.42,-2.35,13.83,0.52,-0.11,-0.95,1.18,-4.06,0.51,0.83,-0.45,0.94,-14.94,4.32,2.79,0
-0.32,-0.44,0.57,-5.06,7.41,-4.73,0.82,0.19,-1.25,5.58,4.24,3.44,0.08,-0.9,-1.01,0.2,-2.03,0.84,0
-0.17,-0.59,0.87,-13.85,-13.58,3.08,0.07,0.94,0.7,-6.14,12.05,3.93,-0.82,0.9,-0.26,4.6,2.37,-0.14,0
0.13,-1.19,-0.18,0.31,1.06,1.62,-1.73,-0.26,-0.35,-12,7.65,-2.42,0.98,-0.3,0.34,-11.52,3.83,-1.6,0
-0.32,-0.44,0.27,-4.57,-8.7,3.57,1.27,-0.11,-0.2,1.67,-3.09,-6.33,0.08,-0.9,1.24,2.64,4.81,0.35,0
-0.17,0.61,-0.78,10.08,-5.77,-7.66,-0.83,0.64,-0.2,-8.58,3.26,0.02,0.38,-0.45,-0.26,-8.59,-5.44,0.84,0
0.28,0.61,-0.78,1.78,0.58,-10.1,0.22,0.04,-0.65,7.53,0.82,3.93,0.83,-0.45,-1.31,5.08,-3.98,5.23,0
-0.92,-0.14,-0.03,-9.94,-11.14,7.48,0.67,-0.71,-0.35,4.11,-3.58,-3.4,0.08,0.6,0.19,9.97,-1.54,4.25,0
-0.17,1.81,-0.03,10.08,-4.79,-2.78,-0.23,-0.26,-0.65,-5.17,-5.04,-2.91,-0.82,-0.45,-0.56,2.15,-0.07,10.6,0
1.78,0.31,-0.18,2.26,3.99,0.64,-0.53,0.79,-0.35,-8.1,4.24,-6.82,-0.22,0,-0.71,8.5,3.83,0.84,0
0.88,-0.74,0.27,3.24,-3.33,-4.73,0.67,-0.71,0.4,8.02,5.21,8.81,0.08,-0.45,0.94,8.99,5.79,7.67,0
-0.32,-0.74,-0.63,2.75,0.09,1.13,1.27,-0.56,-1.25,0.21,7.65,1.49,0.08,-1.2,-0.26,4.6,-13.26,-0.63,0
-0.77,-1.23,0.33,2.13,0.57,4.33,-0.21,0.43,0.2,-2.87,-6.26,7.8,-0.01,0.72,0.44,2.34,-2.39,-5.18,0
0.88,1.92,-0.12,-4.22,-3.34,-7.38,-0.36,-0.17,0.35,3.48,1.06,0.97,0.14,-0.18,-0.46,12.6,2.98,-10.07,0
-0.92,-0.63,0.48,-2.26,-2.36,-0.06,-0.66,-0.02,-0.25,-2.87,2.53,-8.31,-0.46,1.17,-0.61,18.46,6.89,2.63,0
1.18,0.12,-1.02,-2.75,2.03,0.92,-0.81,-0.17,0.35,5.43,-0.89,-9.78,0.89,0.57,0.74,18.46,-2.88,0.68,0
0.58,-0.33,-0.87,1.16,-8.22,-42.54,-0.66,0.73,-0.25,16.17,-18.96,-14.17,-0.31,2.07,0.29,27.25,0.05,28.51,0
0.13,-0.03,-0.42,23.62,-21.4,5.31,0.84,0.58,-0.4,15.69,-23.84,72.74,-0.31,0.57,-0.46,-37.69,25.93,57.32,0
-0.32,0.72,0.78,38.26,37.19,-42.54,-0.66,1.93,1.4,-5.31,47.94,87.39,-1.06,1.02,-0.01,-93.85,1.03,-10.07,0
1.93,-0.18,0.18,-39.86,-59.98,-124.57,-0.66,0.43,1.4,1.53,69.42,-465.83,0.44,1.32,-0.01,-51.85,15.68,2.14,0
-1.52,1.62,-1.32,632.5,-283.12,-6.41,-0.21,-1.52,0.65,256.9,-235.26,-49.33,0.74,0.12,-0.61,203.52,51.32,248.72,0
-1.37,2.07,-1.47,-222.97,29.38,43.88,-0.06,-0.17,0.35,-381.78,298.43,112.78,-0.31,1.32,0.74,-634.37,78.66,-361.63,0
-2.87,1.62,-0.87,1.64,26.94,31.19,-0.21,1.18,0.65,22.03,12.29,22.94,0.74,0.42,1.19,11.13,20.56,20.21,0
-1.82,0.57,-0.27,13.36,14.73,-130.43,-0.21,-0.77,0.95,-4.82,-4.79,-23.94,-1.06,-0.78,1.04,6.25,-2.88,4.58,0
-2.42,1.92,-1.32,14.83,31.33,12.15,-1.26,-0.17,1.1,23.01,-2.84,-15.64,-0.91,1.17,0.89,7.72,-25.34,-30.09,0
-3.02,2.07,-1.47,28.5,64.05,-314.03,-0.81,0.58,0.35,18.61,12.78,16.59,-1.66,0.42,1.64,16.99,-31.2,-43.76,0
-1.07,2.67,-0.87,-280.58,59.65,878.36,-1.86,-0.32,0.2,55.24,142.67,17.57,0.29,1.92,2.39,48.73,-49.27,-53.52,0
-0.02,-0.93,0.48,-0.31,1.06,-2.5,-0.06,0.58,-0.7,-6.29,0.09,-7.33,-0.01,0.12,-0.31,2425.13,-1873,-2909.48,0
-0.92,0.12,-1.02,11.9,-4.8,1.4,-0.21,-0.32,-0.25,2.99,12.78,-0.99,0.44,0.27,0.74,14.55,-0.44,-7.14,0
-0.32,-0.33,-0.12,0.18,-4.8,1.89,-0.36,0.58,0.35,3.97,11.32,0.97,-0.46,0.12,1.64,-5.47,4.44,-1.28,0
0.58,-0.03,-1.32,1.64,-9.68,9.71,0.69,0.43,-0.25,-3.85,-6.75,-8.31,0.14,-0.18,-0.76,2.34,4.93,-15.44,0
-0.02,0.12,-1.02,0.18,1.06,-1.53,-0.36,-0.92,-0.4,5.43,-10.65,0.48,-1.51,-0.48,0.29,6.74,-2.88,0.68,0
1.18,0.12,0.18,3.6,-0.9,8.24,-0.21,-0.32,0.2,1.04,-8.7,-4.4,-0.46,-0.63,0.44,-4.49,5.91,-4.21,0
1.63,-0.18,0.48,1.64,0.08,2.38,0.24,-1.07,0.65,-1.89,-2.84,0.48,0.74,-1.08,0.14,3.81,-2.39,-6.16,0
-0.92,1.02,-0.72,0.67,9.85,-1.53,0.69,0.43,-0.55,-3.36,11.81,-3.92,-0.61,-0.48,-1.21,2.34,-13.62,-6.65,0
0.28,1.02,0.48,-5.68,3.01,-3.48,0.99,-0.77,-1.3,-2.38,4.48,-0.01,0.74,0.42,-0.61,-14.26,-5.81,-16.9,0
-1.82,-0.63,0.93,4.09,-0.9,-2.99,0.69,-0.32,-0.25,-2.87,-3.33,-16.12,-1.21,0.12,0.14,-2.54,6.4,2.63,0
-0.77,-0.33,0.33,-7.63,3.01,-4.94,-0.96,0.43,0.65,2.5,-4.79,-3.43,-0.46,0.12,0.44,14.06,-2.88,-2.25,0
1.33,-0.03,0.78,10.43,3.01,3.85,-0.66,-0.02,0.2,0.06,-5.77,5.85,-0.61,0.27,0.29,-4.49,1.03,-13,0
-0.47,-0.18,0.48,4.09,-10.66,-3.97,0.69,-0.32,-0.25,18.13,-6.26,1.94,0.14,1.77,-0.01,-0.59,-4.34,6.53,0
0.88,-0.03,-0.42,-2.75,-9.68,2.38,-0.06,0.58,0.05,-1.89,6.44,-0.5,0.89,1.02,-0.01,-0.1,-6.3,-6.16,0
0.88,0.42,0.33,0.67,-6.27,-3.97,-0.66,0.73,-0.25,-3.85,1.06,8.78,-0.01,-0.33,-1.36,-1.07,-1.9,2.14,0
-0.32,0.72,-0.12,-3.73,-1.87,3.36,0.39,1.33,0.05,1.04,-0.4,9.27,0.14,-0.48,-0.01,-1.07,-4.34,0.19,0
0.28,1.02,-0.27,-1.77,1.55,-2.99,-0.81,1.03,-0.4,-7.75,4.48,-0.5,-0.91,-1.08,0.14,0.88,8.35,1.65,0
-0.92,-0.93,-0.72,6.53,-0.41,5.8,-0.06,0.58,-0.4,1.53,0.58,-2.45,1.34,-0.18,-0.46,-1.07,-10.69,2.14,0
-1.97,-1.53,-0.42,-2.75,1.55,2.87,-0.66,-0.32,0.65,0.06,6.44,4.38,-0.91,-1.83,1.19,3.32,6.89,-4.7,0
-0.02,-0.18,-1.02,-1.77,-6.75,8.24,0.39,-0.47,0.05,2.5,-0.4,5.36,0.44,1.77,-0.01,1.37,-3.86,3.12,0
0.13,1.62,-0.12,4.57,-5.29,-2.5,0.69,-0.32,-0.55,-3.85,0.58,-3.43,-0.01,-0.33,1.19,1.37,7.86,-3.72,0
0.28,-0.18,0.93,6.53,-4.31,0.92,0.69,-0.77,0.2,-6.78,-3.82,0.97,-0.46,0.72,0.89,-5.96,-1.9,-1.28,0
-0.47,-0.63,0.93,-7.15,7.89,12.15,0.99,0.73,-0.25,-6.29,4.48,-1.96,-0.91,0.12,-0.61,-8.4,5.91,-1.28,0
0.28,-0.18,-0.27,-0.8,0.57,10.68,0.39,-0.47,0.35,-2.38,10.83,-7.33,-0.46,0.12,0.44,-14.26,-2.39,6.53,0
-0.47,0.12,0.93,-10.07,3.5,7.26,-0.36,-0.17,0.35,5.92,-13.1,-0.99,0.89,-1.53,0.74,6.74,-11.67,5.56,0
-0.32,-0.33,-0.12,-0.31,-1.87,-5.43,-0.66,-1.07,0.2,-9.71,5.95,5.36,-0.31,0.27,-0.76,-4,-1.41,-2.25,0
-1.37,0.12,-0.72,-4.7,4.96,-1.53,-0.81,0.28,0.8,-0.92,-5.28,-0.01,0.44,0.27,-0.76,-4.49,7.37,10.44,0
0.13,-0.03,-0.87,-8.61,-3.34,-12.27,0.39,1.03,-0.4,-4.82,-6.75,-14.17,0.89,1.02,-1.21,0.39,-4.34,4.09,0
-0.32,-0.78,-0.42,-3.24,3.5,-8.85,0.99,-0.02,-0.25,2.5,-9.19,1.94,-0.46,1.17,0.44,5.76,-1.9,-12.02,0
0.13,0.42,1.08,0.18,-9.2,5.31,0.39,-0.47,0.35,2.99,3.99,2.43,-1.51,-0.48,0.74,-5.47,1.52,3.12,0
1.33,-0.78,1.08,-8.12,1.06,-14.22,-0.06,0.58,0.35,1.53,-1.87,5.85,1.04,0.12,0.89,-1.07,-3.86,-1.77,0
-0.02,-0.93,0.93,2.62,-3.82,-4.94,-0.06,0.28,-0.7,-1.4,-3.82,9.27,0.89,-0.48,-0.46,-2.54,-5.32,-1.77,0
0.58,-0.78,-0.12,-1.29,11.31,-5.92,0.39,-0.47,-0.4,2.5,-3.33,1.94,-0.31,-1.23,0.74,-11.33,-4.34,-0.3,0
0.13,-0.78,-0.12,-2.75,-7.24,-3.97,0.69,-0.77,0.65,-6.78,3.02,6.34,-0.01,0.12,-1.06,6.74,7.37,13.37,0
0.13,-0.78,1.08,0.67,4.96,8.24,0.69,0.43,-1.3,-5.31,-3.82,0.97,0.29,-1.83,-0.61,1.86,0.54,3.12,0
-1.26,-1.03,-0.83,6.14,-8.06,-16.1,0.89,-1,-0.37,14.86,1.97,-5.82,0.38,0.17,-0.67,-15.21,1.22,-1.81,0
0.39,-0.28,0.37,-9.98,-4.64,1.48,-0.31,-0.25,0.08,-10.53,-0.96,-0.94,-0.37,-1.33,0.83,6.76,-2.2,6.49,0
-0.81,-0.28,-0.53,-7.54,-3.17,-4.87,0.44,-0.25,-0.67,3.14,-7.8,-6.31,1.13,-1.33,-0.37,0.41,-8.55,16.74,0
-0.21,0.62,0.07,-2.65,-6.1,-12.68,-0.01,0.2,-0.67,2.16,-6.33,0.53,-0.97,-1.03,-0.52,-17.16,11.96,30.9,0
0.09,-1.03,-0.08,12.97,3.18,8.32,0.44,-1,0.08,3.63,-19.03,46.43,-0.97,0.32,1.28,-11.79,14.89,44.09,0
-1.41,-0.88,-0.23,30.06,13.43,28.82,-0.01,-0.55,0.38,26.09,-19.03,42.52,0.23,-1.48,-0.07,7.25,0.24,-13.04,0
0.24,-0.88,0.07,-1.19,-13.43,-50.77,1.04,-0.4,-0.22,-39.34,20.52,-186.48,0.38,0.17,-0.37,32.64,-66.17,-169.29,0
0.24,-0.43,0.52,61.31,-41.26,283.71,1.64,-1,-0.37,107.14,-69.81,19.57,0.83,-0.88,-0.67,223.56,-24.17,-232.77,0
-1.86,-0.13,-0.68,-68.57,-71.53,233.9,0.29,-1.15,-0.22,207.73,22.48,-213.34,0.08,-0.88,0.83,207.45,-161.38,-494.49,0
-2.01,0.47,-1.28,-120.33,104.25,-100.08,-0.61,-0.4,-0.22,-1492.47,744.16,1009.26,0.83,0.47,0.38,-1109.94,-393.32,-705.42,0
-1.26,0.47,-1.28,91.59,62.26,75.21,-2.11,0.35,-1.72,604.7,-335.92,-42.93,0.23,0.77,0.68,1229.42,256.1,631.49,0
-0.96,1.52,-0.68,-10.95,32.47,133.8,-3.76,0.65,-0.52,30.97,0.02,22.99,-1.42,1.52,0.98,15.55,15.86,31.88,0
-1.26,1.22,-0.53,-50.5,47.12,186.54,-2.71,0.5,-0.37,-2.72,-11.21,-11.19,-0.82,-0.13,-0.37,-129.47,5.61,50.92,0
0.09,1.22,-0.83,1808.38,1863.95,993.12,-0.61,-0.1,-0.97,-646.76,-521.47,-942.83,-0.97,1.07,2.03,161.55,232.17,283.83,0
0.09,0.47,-0.83,-7.05,10.5,2.94,-0.01,-0.55,-0.37,-5.16,-4.87,4.43,-0.22,-0.73,0.98,-21.07,-12.94,-80.91,0
-0.21,-0.43,-1.43,-6.56,-10.5,5.39,0.74,0.35,-0.52,-4.18,-2.91,-5.82,-0.52,0.77,-0.52,-5.45,2.68,11.37,0
-0.21,-0.43,0.52,0.76,4.15,-6.82,0.74,0.35,0.23,-8.58,-1.94,-13.14,-0.37,-1.33,-1.42,-2.52,9.52,-8.65,0
-0.96,0.32,-0.68,-3.63,2.2,-2.43,0.29,-0.4,0.98,6.07,2.46,-3.38,-0.37,-0.58,0.08,0.9,12.93,-0.83,0
0.09,0.47,-0.83,12,5.62,2.46,-0.61,0.35,0.23,-11.02,0.02,-6.31,0.53,0.02,-0.07,-8.86,-5.62,2.58,0
1.29,-0.28,-0.83,1.74,-1.71,-3.89,-0.61,-0.1,-1.72,1.19,1.48,-1.43,-0.22,-0.73,-0.52,-10.33,-10.5,-9.14,0
-0.81,0.02,-0.08,-6.56,4.15,0.02,0.29,0.35,-1.27,4.6,-4.87,-2.4,0.08,0.47,0.08,1.88,1.7,-10.11,0
0.69,0.32,-0.23,-6.07,5.62,0.99,-0.31,0.5,1.58,1.19,8.32,-4.36,0.38,0.17,-0.37,-4.47,-0.25,0.63,0
0.84,0.02,0.37,-6.56,-1.22,-9.26,-0.16,0.35,-0.52,-3.7,0.02,-2.89,1.13,-0.13,0.08,-6.42,5.61,-4.25,0
-0.66,-0.43,-1.13,-3.63,-2.2,6.36,0.89,0.95,0.38,4.12,5.88,-7.29,-0.52,-0.43,0.98,-7.4,0.73,-6.21,0
0.69,-0.13,0.97,0.28,-0.73,0.99,-0.61,0.65,0.23,12.42,-7.31,0.04,-0.37,0.17,-0.37,0.41,-1.23,-3.28,0
0.09,0.47,-0.53,3.21,1.71,11.25,0.44,0.5,0.08,-1.74,-4.87,1.99,0.23,-0.43,0.23,-8.38,4.63,-6.21,0
-0.66,0.32,1.27,-21.21,2.2,-12.19,-0.01,-0.25,0.08,-0.28,-1.94,-7.77,0.38,-0.13,0.08,-5.93,-23.69,4.54,0
-1.26,-0.73,-0.83,-9.98,-0.73,-4.87,0.44,0.5,0.83,11.44,-7.31,-8.75,0.08,-0.88,0.08,6.27,-0.25,3.56,0
0.84,-0.28,0.67,2.23,-9.52,1.48,-0.91,-0.1,0.23,1.67,-6.33,-2.4,0.98,0.77,-0.82,2.86,3.17,-1.32,0
0.69,-0.88,-0.68,-12.42,-2.2,-5.84,-0.16,0.65,0.68,4.12,2.95,1.02,-1.12,0.47,-0.67,-5.93,3.66,-7.67,0
0.24,0.62,-1.43,0.76,2.2,-2.91,-0.91,-0.85,0.68,3.14,5.39,-4.84,-0.22,0.02,-0.82,6.76,-0.74,4.54,0
-0.21,-0.88,0.52,6.62,10.01,-5.84,0.44,-0.55,-0.67,-2.23,-0.47,-5.33,1.13,0.92,-0.67,-2.03,-1.23,-9.14,0
0.99,0.62,-1.13,10.53,-0.73,3.92,-0.31,0.5,0.83,14.37,2.95,-5.82,-1.42,0.02,-0.52,-10.82,9.52,-2.79,0
-0.36,-1.03,-1.58,-4.61,8.55,7.83,-0.61,-0.85,-0.22,-7.6,4.41,-2.89,0.08,-0.13,-0.67,-3.49,-0.25,-3.28,0
0.09,-1.03,0.37,-2.16,-2.2,-0.96,-0.01,1.25,-0.67,6.07,-4.87,3.95,0.98,0.02,0.23,6.27,9.03,4.54,0
-1.26,-1.03,0.37,3.69,1.71,-2.91,-0.16,0.65,0.68,-5.16,-8.28,1.99,0.53,0.77,-1.57,7.74,16.35,2.1,0
-1.26,-0.28,-0.08,-10.47,4.64,0.5,-0.01,0.5,0.38,13.39,-3.4,7.36,-0.52,0.02,-0.07,13.6,1.22,-6.69,0
-0.96,-0.43,-0.68,-6.56,-3.17,6.36,-0.61,-0.4,-0.22,8.51,4.9,-3.87,0.53,0.77,0.98,-1.54,1.22,3.56,0
-0.81,-0.28,-0.53,-7.05,-4.64,-1.45,-0.01,1.25,0.38,10.46,9.29,5.41,-0.37,-0.13,0.08,11.64,-10.01,3.56,0
-0.66,0.62,-1.43,-16.32,7.57,2.94,-1.81,0.65,0.23,3.14,-7.31,3.95,-0.37,0.47,0.38,7.74,-3.67,-6.21,0
-0.36,0.02,-0.83,-9.98,12.94,-4.38,-0.91,0.65,-0.22,-1.74,-9.26,-8.26,-0.97,-0.43,-0.07,4.81,6.1,-1.81,0
0.24,-0.13,-1.43,-2.16,0.73,8.8,-0.76,-0.55,1.88,12.91,8.32,1.5,0.38,0.47,-0.67,-9.84,-3.67,-5.72,0
0.24,-0.13,0.52,7.11,-2.2,5.87,0.74,-0.4,0.23,1.67,1.48,3.95,-0.22,0.02,0.23,7.25,-0.74,-12.07,0
-0.21,0.32,-1.13,11.51,6.59,-3.89,-0.76,-1,0.38,5.09,-1.94,0.53,0.98,-1.03,-0.52,-3,10,-14.51,0
0.99,0.32,-0.68,0.28,10.99,0.99,1.34,-0.25,-0.37,-4.18,-4.87,5.41,-0.52,0.77,0.23,3.34,1.7,-6.21,0
0.24,-0.88,-0.68,4.67,-2.2,-4.87,-0.01,-0.25,0.83,13.39,4.9,6.87,0.08,0.17,-0.37,-13.26,-5.13,10.88,0
0.24,-0.43,-0.68,-0.7,0.25,-3.89,-0.91,1.1,0.23,2.65,2.46,7.85,-0.52,0.02,0.68,-8.86,-7.08,-2.79,0
-0.81,-1.03,0.37,2.72,-14.4,6.36,-0.01,0.95,-0.67,-7.11,-4.87,-5.33,1.13,1.67,0.08,0.41,-4.16,8.44,0
-0.81,-0.28,-0.53,-11.93,-1.71,8.8,0.29,1.1,-0.22,-2.23,-3.89,5.41,0.83,-0.58,-0.37,-8.38,1.22,5.51,0
0.39,-0.73,1.12,-1.68,-10.01,-2.43,1.34,0.95,-0.67,-8.09,7.83,3.46,0.38,0.17,0.08,-3,10,-2.79,0
0.37,-1.09,-0.3,15.76,-9.93,-0.99,-0.73,-0.79,0.16,19.8,-7.55,24.03,-1.51,-0.08,0.86,9.59,1.64,19,0
-1.13,-0.19,0.3,6.97,-2.12,15.61,-0.43,1.01,-1.34,3.68,2.21,-6.74,-0.31,0.67,0.86,3.73,-4.22,-64.98,0
0.52,0.26,0.3,-11.1,-19.21,-71.8,-0.58,-0.34,0.76,-34.4,25.65,-77.05,0.14,-0.83,-0.34,7.63,-16.42,-31.78,0
1.12,0.11,-1.5,-10.61,64.78,181.13,0.47,0.71,0.91,62.28,-18.3,5.96,0.59,0.37,-0.49,47.67,10.92,72.23,0
1.87,0.56,-0.6,11.85,4.72,244.61,-0.73,0.26,-1.04,42.75,0.26,-274.8,0.44,-0.53,1.16,356.27,-224.43,-698.77,0
-1.28,-0.34,-0.3,160.29,13.99,9.75,-0.43,-0.04,-0.29,91.58,-18.78,139.26,-0.31,0.22,0.11,-139.83,105.65,251.91,0
-0.68,0.56,-0.6,-54.55,37.43,-122.58,-0.43,-1.24,-1.04,16.38,-77.38,199.32,-1.36,1.12,-1.24,-237.48,56.33,70.76,0
0.52,-0.94,-1.35,41.15,-56.32,153.79,-2.23,-0.64,-0.44,-38.8,-39.78,-68.75,-1.66,0.37,0.71,35.47,43.15,50.25,0
-1.13,-0.19,-0.6,34.8,10.58,-1.48,-2.23,-0.64,-1.19,55.44,-35.39,0.59,-1.06,0.22,0.86,27.65,8.48,10.21,0
-1.58,1.46,-0.9,39.2,11.55,5.35,-1.78,-1.09,-1.19,26.63,-15.37,5.96,-3.01,0.22,-0.34,8.61,14.83,26.82,0
-1.13,0.56,-0.9,26.99,10.09,11.21,-1.03,-0.64,-0.14,17.36,-10.97,11.33,-3.31,0.37,1.31,19.35,34.36,2.4,0
0.22,0.26,-0.6,48.96,4.23,-28.83,-1.63,-0.79,0.16,22.24,33.95,-252.34,-1.96,0.97,0.41,3.24,26.06,-4.43,0
-1.73,0.41,-1.2,10.39,20.34,-15.64,-1.78,-0.64,-0.89,18.33,-6.58,-4.78,-0.76,1.27,1.16,21.31,8.97,0.94,0
-2.18,0.86,-0.75,17.22,12.53,21.95,0.02,-0.04,-1.79,16.38,-10.97,-1.36,0.89,0.67,0.11,27.65,9.94,11.19,0
-0.08,0.41,-0.75,38.71,8.62,22.93,-2.23,-0.64,-1.19,18.33,-14.39,11.33,-0.76,-0.53,1.16,21.31,9.94,1.43,0
-1.13,0.26,-0.15,35.78,1.79,46.86,-0.13,-0.64,-0.44,12.96,-18.78,8.4,-1.06,-0.08,1.61,13.49,10.43,3.87,0
-1.28,0.41,-1.95,51.4,50.62,53.2,-1.93,-0.49,-0.59,6.61,-39.78,-75.58,-1.66,0.82,0.26,28.14,-8.12,-43.5,0
-1.58,0.56,0.6,96.81,-48.99,-491.23,-0.58,-0.34,-0.89,-155.49,112.56,-275.29,-2.11,0.37,1.01,-73.91,65.61,199.67,0
-0.23,0.56,-0.15,112.44,-19.7,-134.3,0.02,0.26,-1.04,124.29,66.18,-70.21,-0.91,-0.68,0.71,-583.67,69.51,140.59,0
2.02,0.86,-0.3,3.55,0.81,8.28,-0.13,0.41,-0.89,4.66,-5.6,6.45,-0.31,-0.83,1.16,-8.97,-12.03,-25.43,0
-0.68,0.26,0.3,8.44,-0.17,0.47,0.02,-0.04,0.16,-3.15,-6.58,6.45,-0.46,0.37,1.01,5.68,7.99,-0.04,0
0.22,-0.94,0.3,-1.82,-10.42,-16.13,0.47,0.26,0.91,5.15,-7.55,1.08,0.89,-0.83,-0.64,-3.11,-9.1,-9.8,0
0.37,0.41,-0.75,-0.35,-6.51,10.72,0.47,0.26,0.16,8.08,19.3,-10.64,1.49,-0.98,-0.04,5.68,-0.31,7.77,0
0.22,-0.94,-0.15,9.9,-12.86,11.21,0.02,-0.04,0.46,-1.69,3.19,14.75,1.19,-0.53,1.61,-12.39,0.18,-0.04,0
0.82,0.41,-0.3,-4.75,-0.17,-0.99,0.47,0.26,-0.29,2.71,2.21,1.57,0.29,0.07,-1.24,3.73,12.87,-4.92,0
-0.23,-0.19,-0.6,1.6,-2.12,3.89,0.02,-0.49,-0.29,-8.03,4.17,-6.25,-0.46,-0.98,-0.79,2.75,1.16,4.36,0
0.52,0.26,-0.15,-0.84,-1.63,8.28,0.47,0.26,-1.04,-0.22,7.58,-4.29,-0.46,0.07,-0.79,-4.08,4.09,1.91,0
-0.23,0.26,1.05,5.02,-7.49,-2.46,0.92,-0.04,-1.04,-2.17,3.19,4.5,-0.91,0.07,-0.49,3.24,-11.05,4.84,0
1.87,-0.19,-0.9,3.55,-7.49,-3.44,-1.03,0.11,-0.14,6.61,8.07,1.57,0.89,0.67,-0.64,7.15,3.11,-10.29,0
-0.83,0.41,-0.3,1.6,-2.12,-1.48,-0.43,-0.49,-0.29,7.1,3.19,-3.32,0.14,-0.08,0.11,-16.29,-5.19,-1.02,0
0.82,0.11,0.45,7.95,2.76,1.45,0.47,-0.49,0.91,-8.03,11.49,-10.64,0.29,0.07,-1.24,-0.67,-7.15,-10.78,0
-0.53,-0.34,-0.3,-2.31,5.21,-0.02,-0.43,0.71,-0.59,-1.2,9.54,1.57,0.59,-0.98,-0.04,5.19,0.18,4.36,0
0.37,0.41,0.9,-0.35,-9.44,9.75,0.92,-0.49,-1.79,-6.57,0.26,4.98,1.04,-0.23,0.71,7.63,7.5,1.43,0
0.52,0.56,0.6,4.53,-11.88,-4.41,0.02,1.01,-0.29,1.73,0.26,11.33,-0.16,0.37,1.01,-2.62,-4.22,1.43,0
-2.18,0.11,-0.3,5.02,-5.54,-3.44,0.47,0.26,-0.29,-1.69,-1.21,12.8,0.29,-0.68,0.26,-9.46,8.48,7.77,0
-0.08,0.41,-0.3,2.58,2.76,-12.23,1.07,0.11,1.06,10.52,-2.18,4.01,-0.46,0.07,0.26,-5.06,0.18,5.82,0
-0.08,0.11,-0.3,-3.77,-6.51,-9.3,-0.43,-0.49,-0.59,3.68,7.58,5.96,-0.46,0.07,0.71,13.98,3.11,3.87,0
0.22,-0.19,-0.6,0.14,-9.44,-5.88,-0.73,-0.79,1.21,1.73,-10,-2.83,-0.16,0.07,0.26,1.77,5.55,-5.41,0
-0.23,0.26,1.05,-5.24,3.74,-2.46,0.32,0.11,-0.44,7.59,-3.16,-5.76,0.44,-1.28,0.11,-5.55,-5.68,0.94,0
-0.83,1.61,0,-4.26,-1.14,8.77,0.32,-0.34,0.76,13.45,1.72,8.89,0.44,0.67,0.41,1.77,-0.8,4.84,0
-0.53,-0.34,0.9,1.6,-0.17,6.33,-0.13,0.86,-0.14,0.76,5.63,5.47,0.29,0.82,-0.79,9.1,14.34,2.4,0
0.97,-0.94,-0.6,-7.68,-5.05,12.19,0.32,0.11,0.31,2.71,-1.69,1.08,0.29,0.07,1.31,4.22,3.6,2.89,0
-0.68,0.26,0.3,2.09,-4.07,-2.46,-0.73,0.26,0.16,-1.69,6.61,-2.83,1.04,-0.23,1.31,-6.53,-1.77,5.82,0
0.37,-0.34,0.45,-2.31,0.32,3.89,0.47,-0.49,0.16,0.76,0.26,-7.22,-0.16,-0.68,-0.79,-6.53,3.11,-9.32,0
0.52,0.56,-0.15,-0.84,-7,-9.78,0.62,0.11,-0.44,7.59,4.17,-5.76,0.89,-0.08,-0.34,-16.78,-12.03,-3.95,0
-1.28,0.11,-0.3,5.02,9.11,7.79,-0.13,-0.34,-0.14,-6.08,13.44,-2.34,-0.46,1.12,1.31,8.12,2.62,6.8,0
-0.53,0.11,-0.3,14.78,8.62,-14.67,0.32,0.41,-0.89,-9.01,-4.14,-5.76,-0.76,0.97,0.41,6.66,-1.77,-1.02,0
-0.08,-0.34,0,0.62,0.81,9.75,-0.13,-0.04,1.21,4.17,-3.65,-3.32,0.14,0.67,0.41,-12.87,-13,-0.53,0
-0.83,-0.34,0,-4.26,1.3,-4.9,0.32,0.11,-1.19,6.13,3.68,5.47,1.49,-0.23,0.71,-4.08,-6.17,-1.5,0
0.37,0.86,0,-5.24,2.76,1.45,-0.73,-0.04,0.46,6.13,2.21,-7.71,0.44,-0.53,-0.34,2.75,-2.26,-6.39,0
-0.16,0.98,1.57,13.81,13.46,-0.95,-0.92,0.41,-0.77,56.49,-63.46,156.04,-0.28,0.02,0.23,-40.08,81.3,228.16,0
-0.61,0.98,0.37,-98.5,192.65,-52.71,-0.47,-1.39,-0.02,-12.85,44.45,137.98,-0.58,0.17,-0.37,-30.8,-51.03,-236.68,0
-2.56,2.03,0.07,-114.12,8.08,-37.57,-1.82,-0.04,-0.92,110.2,-43.44,21.77,-0.73,0.32,0.23,890.58,-236.09,-472.03,0
-1.21,0.38,0.07,167.62,6.62,-27.8,-1.52,-0.04,-0.92,14.99,28.33,108.68,-0.88,-0.13,1.13,-395.06,11.96,-125.35,0
-2.11,1.13,-1.88,33.83,27.62,2.96,-1.67,0.41,-0.02,70.65,-41.98,-5.58,0.02,-0.73,0.23,163.05,17.82,48.47,0
-1.66,1.13,-0.68,13.32,21.76,-16.57,-1.22,0.86,-0.32,26.7,-8.78,12.98,-1.78,-0.58,0.83,21.44,15.38,12.83,0
-0.46,0.08,0.07,15.27,28.1,-55.15,-2.42,0.41,-1.07,10.59,1.97,12.98,-0.73,1.07,0.68,15.58,3.17,15.76,0
-1.21,1.58,-1.43,3.06,23.71,-1.93,-0.92,-0.64,-0.77,7.66,3.92,7.61,0.02,0.02,-0.52,1.42,8.06,0.62,0
-0.76,1.13,0.07,-0.84,24.2,0.52,-0.47,0.11,0.43,12.06,3.43,-2.65,0.02,1.52,-0.07,-1.5,11.47,-3.77,0
-1.51,1.73,0.37,12.34,15.41,-10.71,0.13,0.71,-0.47,0.83,4.9,5.16,-1.18,1.82,1.73,-1.5,15.87,16.25,0
-1.06,2.18,-0.83,6.97,14.43,-3.88,-0.62,0.71,-0.17,13.52,12.71,-1.67,-0.13,0.62,0.38,12.66,-3.66,0.13,0
-0.01,1.58,0.07,-0.84,26.64,5.4,0.43,-0.34,-0.02,-7.96,-3.4,-13.39,0.02,0.32,-0.52,-1.99,12.45,2.09,0
-1.81,0.23,0.37,14.3,40.8,-4.86,-0.92,-0.34,1.93,7.17,7.34,-18.76,1.07,-0.58,-0.37,16.56,-8.06,-4.75,0
0.29,2.48,0.37,7.95,29.57,-24.87,0.43,0.11,-0.32,8.64,9.29,31.04,1.82,-0.58,0.08,19.49,-9.52,-4.75,0
-0.01,1.58,-0.23,41.64,112.09,-54.17,1.33,-0.49,1.33,48.68,-18.54,-1.67,1.37,1.22,0.38,50.74,-5.62,-46.25,0
0.29,1.43,-0.08,703.26,-43.19,-28.29,0.58,1.46,0.58,487.15,-250.96,-464.56,-0.58,0.62,1.13,-577.68,-18.31,-91.17,0
0.59,0.53,0.67,188.61,108.18,-636.69,0.58,0.26,0.58,180.02,254.9,-1673.06,0.62,-0.58,-0.67,-1579.14,-141.85,263.32,0
-0.16,0.23,1.12,5.51,-4.12,7.84,-1.07,0.26,-0.17,-2.1,0.99,-0.69,-1.33,-0.58,0.83,0.45,6.1,-1.33,0
-0.16,2.18,0.37,-6.21,4.18,2.96,-0.62,-0.04,-0.47,-8.94,-5.36,-1.18,0.47,-0.73,-0.07,5.82,2.68,-0.35,0
0.29,0.23,0.37,0.62,-0.7,-12.67,0.13,-0.04,-0.47,-0.64,1.97,-3.14,0.62,-0.58,0.83,1.91,0.73,3.06,0
0.44,0.08,-0.68,-4.75,2.22,2.47,0.58,1.01,-0.47,-6.99,8.31,-1.67,-0.88,-0.58,-1.42,-1.99,3.66,5.51,0
-1.66,-0.37,-0.68,1.6,-3.63,-4.37,-0.02,0.86,-0.32,43.79,6.36,-24.62,-1.18,0.32,-0.52,6.8,-0.73,-10.61,0
-0.76,0.38,0.52,6.48,-0.7,3.93,1.33,-0.04,0.58,-7.48,-5.36,-5.58,-0.28,0.32,-0.82,6.31,-1.71,-1.33,0
0.29,-0.97,0.37,-0.35,5.15,-8.27,0.43,0.41,-0.32,-7.96,6.36,7.12,-0.13,0.17,-0.67,6.31,1.22,-7.68,0
-0.16,-0.97,-0.08,-0.35,-8.52,-12.67,-0.32,-0.49,0.58,2.29,2.94,-2.16,-0.28,-0.28,-0.07,7.77,0.24,8.44,0
0.59,-0.97,0.37,-4.26,-1.19,-0.46,-0.92,1.16,0.43,3.27,-1.45,1.26,0.02,-1.03,-0.07,-0.53,-3.18,14.29,0
0.29,-0.52,-0.08,1.6,-1.19,2.96,-0.92,0.11,-0.32,4.24,-2.43,-8.02,0.77,1.07,0.23,-0.04,-7.57,-1.82,0
