MagX1,MagY1,MagZ1,AccX1,AccY1,AccZ1,MagX2,MagY2,MagZ2,AccX2,AccY2,AccZ2,MagX3,MagY3,MagZ3,AccX3,AccY3,AccZ3,Class
0.71,0.3,-0.87,7.16,-8.67,2.23,0.35,0.93,-0.56,-14.11,-5,-5.53,0.95,0.24,0.3,1.03,-7.86,-0.84,0
-0.04,-0.6,-0.12,-13.84,6.96,6.62,2.75,1.68,0.19,-5.81,-8.91,5.7,-0.4,0.09,-0.6,4.44,12.65,-11.1,0
-0.94,-1.35,-0.87,10.09,-2.32,-2.17,0.05,-0.12,-0.41,-11.18,-1.58,-9.44,0.5,0.24,0,-1.9,3.86,-0.36,0
-0.94,-0.15,-0.12,-7.98,-2.32,-0.7,-0.1,0.48,1.69,9.33,5.74,-14.81,-1.3,-0.66,-0.15,-2.88,3.86,5.01,0
0.11,-1.5,-1.47,4.72,8.42,4.18,-0.1,-0.27,-0.56,2.01,-10.37,6.19,-0.7,-2.31,0,0.05,6.3,-9.63,0
-0.34,0,0.18,-6.03,1.1,6.62,-0.25,-0.42,-0.41,2.5,-7.93,3.74,-0.25,0.99,-0.3,-4.35,0.44,7.94,0
0.11,-0.75,-0.72,6.67,1.1,3.69,-0.1,0.48,-1.31,-9.22,7.7,-0.65,-0.1,0.54,0.6,-3.37,-0.04,-1.33,0
-0.49,0.3,-1.62,1.79,-2.81,11.02,-0.1,0.93,0.19,-10.2,-6.95,5.7,0.2,0.69,0,2.49,-5.42,0.62,0
-0.49,1.35,-0.12,4.72,-5.74,0.76,-0.85,-0.57,0.19,-3.85,-4.02,-1.14,0.5,-0.06,0,-4.35,1.42,-1.33,0
0.56,0.75,-0.27,-1.63,15.75,-2.66,-0.7,-0.87,0.34,-4.83,8.67,7.16,0.35,1.14,-1.65,4.93,7.28,0.13,0
0.41,0.3,1.08,-2.12,-1.83,6.13,-0.25,-1.17,0.79,-8.74,7.7,0.33,-0.25,0.24,0.75,-5.32,-4.93,-7.19,0
0.56,0,-0.72,4.23,-3.78,34.94,-1.15,0.33,0.79,1.03,-8.91,22.3,0.65,-0.66,0.6,9.33,1.42,-21.84,0
-0.64,0,-1.47,-0.65,1.59,2.23,0.05,1.08,-0.41,-0.92,13.55,1.3,-1.3,-1.41,-0.6,5.42,-4.93,3.06,0
0.11,-0.3,0.18,-0.65,2.08,-0.21,0.05,-0.12,-0.11,-4.34,1.35,6.19,-0.4,0.09,-1.35,-0.93,9.23,7.94,0
-0.04,1.05,-1.32,-19.21,2.08,3.2,1.4,-1.17,-0.86,0.05,-1.09,-12.37,-1.45,-0.51,-0.75,-17.04,5.82,14.29,0
-0.64,0.45,-0.72,2.76,-2.32,-0.7,-0.85,-0.27,0.19,3.47,-6.46,4.23,-1,0.24,-0.3,5.42,4.35,9.9,0
-1.69,-0.15,-0.12,2.76,7.93,0.27,-1.45,0.63,0.34,2.5,11.11,-15.3,0.5,0.24,0.3,8.35,5.82,5.99,0
-0.34,0.75,1.68,-3.58,2.08,7.11,-0.25,-0.12,0.34,-5.81,1.84,-8.46,0.2,-0.06,-0.75,3.96,5.33,-6.22,0
0.11,-0.3,-0.72,2.76,7.93,67.66,1.7,0.33,-0.11,-4.83,-10.86,38.41,-0.4,0.09,0.6,-0.44,-7.86,-3.29,0
-0.49,-0.6,0.33,76.49,3.54,24.2,-1.15,1.08,-2.36,26.91,6.23,69.17,-0.25,-0.81,-0.75,-143.02,10.21,-126.82,0
0.41,0.6,0.33,-5.05,5,9.06,-1.15,1.38,-1.61,-7.27,19.9,-4.07,-0.25,-0.81,0.3,-54.64,0.93,-50.65,0
0.11,0,-0.27,8.13,9.4,14.92,2,1.23,0.49,-6.29,15.02,12.53,1.1,0.84,2.4,-5.81,-7.86,26.99,0
-0.34,0.75,0.18,-6.03,11.84,11.99,1.4,0.63,2.59,-16.55,29.18,22.3,-0.1,0.84,1.65,-12.65,6.79,31.38,0
1.76,0.75,-0.27,-0.65,18.19,-0.21,2.15,-0.87,2.59,2.01,1.35,13.51,0.95,0.24,1.5,0.05,-8.34,-2.8,0
0.11,-0.75,0.18,3.25,4.03,-4.61,2.6,-0.87,1.09,-10.69,12.58,-38.25,1.55,0.54,1.65,-5.32,-11.76,-20.38,0
0.71,-0.6,-0.42,2.76,8.42,79.86,1.4,0.33,1.54,-4.83,-52.36,141.93,1.1,0.54,2.7,-12.65,-1.02,14.29,0
-0.04,0.6,-0.87,-48.51,-3.3,-30,0.05,0.33,1.09,-11.67,26.25,-139.81,1.7,-0.81,0.75,20.07,2.4,-10.61,0
-0.34,-0.3,0.18,-0.65,-7.2,-13.89,-0.85,0.18,-0.26,11.77,6.23,-45.08,-0.7,0.24,-0.3,11.28,19.49,38.71,0
-0.04,0.6,0.33,3.74,-8.67,8.57,0.35,0.48,1.24,6.4,8.18,3.26,-1.3,0.09,-0.15,-6.79,8.26,-4.26,0
-0.04,0.3,0.33,-0.65,-1.34,21.76,-1.45,0.33,-0.41,-8.74,-10.37,5.7,-0.85,-0.21,-0.6,-3.86,0.44,-3.29,0
-0.49,-0.6,-0.42,3.74,4.52,-9,-1.15,-0.42,1.54,-1.9,-10.37,13.02,-0.1,0.54,0.9,-4.83,-6.39,10.39,0
0.71,0.6,0.63,-7,-7.69,-8.03,-0.85,0.48,0.49,-1.41,-7.93,-3.09,1.1,-0.21,0.15,7.37,5.82,-6.22,0
0.71,-0.15,-0.87,-1.14,-0.85,2.23,-0.55,-1.02,0.19,2.5,6.23,5.7,-0.1,0.54,0.15,-0.93,4.35,5.01,0
0.11,0.45,-0.27,-0.65,-9.64,4.67,-0.55,0.18,-1.01,10.8,0.37,-3.58,0.35,-0.96,0.6,0.54,6.3,15.76,0
1.01,-1.95,0.48,-11.88,1.59,-23.65,-1.45,-0.12,-0.11,13.24,-3.54,-30.92,0.95,0.24,-0.75,-23.39,16.07,36.26,0
-0.64,0.75,1.68,8.62,-1.83,36.89,-0.1,1.23,0.94,-4.34,13.55,-33.85,0.2,0.99,0,1.51,0.44,-27.7,0
0.71,-0.6,-0.87,-3.1,-5.25,8.09,0.65,0.18,0.19,-3.85,0.37,-12.86,-0.4,0.09,0.9,-13.62,3.37,15.76,0
-0.94,-0.6,-0.12,-5.54,10.86,4.67,0.35,0.18,-1.01,-2.88,-12.81,-7.49,-0.1,0.54,-0.9,-6.79,2.4,3.55,0
1.01,0,-0.27,15.95,-10.13,3.2,1.7,1.38,0.34,1.52,4.77,-6.51,-0.1,0.09,0.15,2.98,5.33,-1.33,0
-0.49,-0.15,-0.12,-0.17,-7.2,7.11,0.65,-0.57,0.19,-9.22,-5,-5.04,-0.1,0.54,0.6,-0.93,4.35,4.04,0
-0.04,-0.6,-1.32,-17.74,2.08,-0.21,0.95,1.08,-0.11,-2.39,-15.25,2.77,0.95,1.44,0.75,-4.35,7.28,1.11,0
0.71,0.3,-0.12,-5.54,-4.27,-3.14,0.5,1.38,1.09,-3.36,-4.02,10.09,-1,0.99,-0.3,-6.3,9.23,0.13,0
-0.04,0.6,0.33,-6.03,3.05,-29.51,0.35,-1.02,0.19,1.03,5.74,-2.6,-0.25,0.24,-0.75,-6.79,12.65,17.22,0
0.11,-2.25,-0.72,-3.58,-3.3,-5.59,-0.55,-0.57,-1.76,-5.32,5.25,-2.6,-0.7,1.74,0,-3.37,1.91,-9.15,0
-0.04,-0.15,-0.12,-7,-13.55,-0.7,-0.1,0.18,-0.26,1.03,3.79,4.23,-0.85,0.54,-0.15,4.44,-5.9,-0.36,0
-0.94,-0.6,0.63,-0.65,-1.83,-10.96,1.55,-0.57,-0.26,-13.13,-5.98,10.58,-0.1,1.14,0.6,0.54,5.82,14.78,0
0.11,0,0.18,4.72,-2.32,8.57,-0.85,-1.02,0.49,14.7,-4.02,-1.63,-0.4,0.84,0.15,7.37,-8.83,0.62,0
-0.49,-0.9,-0.87,8.62,-18.43,11.5,-0.85,0.48,0.49,-2.39,2.32,3.26,0.5,1.44,1.5,4.93,1.42,-6.7,0
-0.34,-0.3,-0.27,-3.1,-3.78,-10.96,-1.15,-0.87,1.09,0.05,-12.81,17.91,-0.1,0.09,-1.65,-8.74,0.44,9.9,0
-0.64,-1.05,-0.27,2.28,5,11.5,0.5,-0.42,1.09,-7.27,-8.91,4.72,0.2,0.69,0,15.19,-5.9,-13.05,0
-0.66,1.37,-0.48,-11.96,2.05,112.38,0.58,1.24,-0.31,-15.76,3.29,40.18,-0.63,0.07,0.9,16.83,-0.09,-27.08,0
-0.81,-0.28,0.57,-19.29,6.93,-119.07,-0.62,0.19,-0.76,20.86,-16.25,18.2,-1.53,-0.38,1.05,-76.43,31.65,189.23,0
0.24,1.07,0.27,21.24,-25.29,-99.05,0.43,0.64,0.59,2.3,-29.92,-2.3,0.27,0.07,-0.6,91.54,16.51,-103.74,0
-0.66,0.62,-0.03,-9.03,13.77,47.92,-0.62,1.24,-0.31,-3.07,-2.08,-15.98,-1.53,0.67,-0.45,3.16,0.89,-14.38,0
0.39,0.77,0.12,-2.2,14.75,90.89,1.78,0.19,-1.81,-4.04,-0.13,14.3,1.02,1.57,-0.6,32.46,-0.58,-47.59,0
-0.81,0.47,-0.63,-40.77,46,35.72,0.88,0.64,0.29,23.3,19.4,34.8,-0.03,-0.83,0,9.02,-8.39,12.96,0
0.54,0.32,1.47,31.98,33.3,-38.5,-1.67,1.09,-1.36,2.3,59.44,-87.27,1.32,0.52,1.95,-53.48,7.24,24.68,0
0.54,1.07,-0.03,-27.59,21.09,77.22,-0.17,0.19,0.74,-20.64,21.35,-17.44,1.32,0.52,2.7,14.39,-22.06,-9.99,0
0.24,0.62,1.02,1.22,3.52,85.52,2.23,0.19,1.19,-2.58,17.93,83.63,0.57,0.07,3.45,16.34,-35.73,-7.55,0
-0.81,-0.28,0.12,-203.86,-354.39,258.37,0.13,0.94,0.74,217.15,-236.95,1008.38,2.22,0.52,4.5,-598.4,-27.92,566.67,0
-0.51,-0.28,0.57,-3.17,6.45,-6.27,-1.22,-0.11,-0.61,-3.55,-0.13,25.04,0.72,-0.83,0,-21.74,-2.04,2.71,0
1.89,-1.63,-0.93,3.17,16.21,-7.25,-1.07,0.19,0.44,19.39,1.33,0.62,0.42,-0.08,0,-8.07,-2.53,-0.22,0
0.54,-0.88,1.02,-3.17,-9.67,1.05,-0.77,-0.11,0.59,0.84,-1.11,-3.77,-0.78,0.97,-0.45,16.34,6.75,-26.59,0
0.39,0.47,-0.63,-6.59,-18.95,-26.29,-0.17,1.24,1.49,11.58,-3.06,11.86,1.32,-0.98,-0.9,-0.26,-6.44,2.22,0
-1.26,-0.28,0.87,0.24,-8.69,-13.6,1.18,0.64,-0.91,11.58,-1.6,-15,-0.33,0.97,1.05,14.88,5.77,11.01,0
-0.21,-1.33,-0.48,-6.1,1.07,146.07,0.13,-0.26,-0.31,-15.76,37.95,-98.98,0.27,0.07,0.15,15.85,10.65,2.71,0
-0.66,0.32,0.27,-5.13,-0.39,-8.72,0.43,-0.41,0.29,4.26,-6.97,-2.3,-0.03,0.67,1.05,-26.63,-3.51,-14.87,0
-0.66,0.32,-1.23,3.17,-3.32,-16.04,-0.02,-0.41,-0.61,-1.11,-13.8,34.32,-0.18,-0.23,0.9,14.88,-10.34,-9.01,0
-1.86,-0.13,-1.23,5.62,3.03,0.56,1.48,-1.01,-1.06,-0.14,-6.48,2.09,1.32,-0.23,0.15,-13.44,-3.02,-4.62,0
-0.06,-0.28,-1.08,-9.03,3.52,-5.3,-0.77,-0.41,-0.16,5.23,-1.6,-9.63,1.17,0.37,0,-7.09,3.82,9.05,0
0.84,0.02,0.12,3.17,4,53.3,-0.77,0.34,-0.16,-20.64,11.59,46.04,1.32,-1.28,0.9,29.53,-5.95,-40.75,0
-0.21,-0.58,-0.03,-6.59,-2.83,6.42,0.13,0.19,-0.31,-6.97,-3.55,6.97,0.72,-0.38,-0.75,12.44,-3.02,-11.46,0
-0.81,-0.73,0.87,10.01,-11.62,0.56,-0.47,0.34,-1.36,-3.07,-9.41,7.46,0.42,-1.13,0.75,-7.09,4.79,1.73,0
-0.06,0.47,-0.33,9.03,-5.27,-7.74,1.48,-1.31,0.44,-9.41,-5.5,7.46,-0.63,-0.23,0.9,-2.7,-4.97,9.54,0
-1.11,-0.13,-0.48,-7.08,-10.16,-16.04,0.13,0.19,0.44,1.33,10.61,-3.28,0.72,-1.58,-0.45,13.41,0.89,15.89,0
0.24,-0.58,-1.23,-4.15,2.54,-8.23,1.18,-0.86,-0.91,7.19,-8.43,12.83,0.42,0.37,1.05,10,-13.76,-14.38,0
-0.06,-0.28,1.62,-2.69,8.4,-15.06,1.18,0.64,-0.91,6.7,0.36,15.27,-0.93,0.52,0.15,-6.61,6.75,15.4,0
0.84,0.47,-0.33,-11.47,-0.39,9.84,-1.07,-0.26,0.74,-5.51,7.19,-37.95,1.17,0.67,0,10.97,-8.39,7.1,0
-0.21,-2.08,-0.03,-2.69,-5.76,6.42,-1.07,-0.26,0.44,11.58,-11.36,28.46,0.57,-0.68,0.15,19.76,-8.88,-41.24,0
0.24,-0.13,-1.23,-7.08,4.49,-0.9,-1.22,-0.41,0.29,-9.9,-4.53,1.11,-0.03,-0.38,2.1,10,12.12,14.42,0
-0.06,-0.73,-0.33,3.66,0.59,3,1.03,-1.01,-0.31,-2.09,12.56,5.02,-0.33,-0.08,-1.2,-6.12,0.89,-1.69,0
0.24,0.32,1.02,-1.71,1.56,-24.83,0.58,-1.01,-0.31,-3.07,-0.13,-3.28,0.72,0.37,-0.45,6.09,9.68,9.05,0
0.24,-0.88,0.72,0.73,-4.3,4.96,0.13,0.19,-0.76,9.63,-1.6,6.48,-1.38,0.52,0.9,-1.24,7.24,-17.31,0
0.39,-0.28,-0.33,13.92,3.52,-8.23,0.88,-1.16,0.59,-5.02,1.33,20.64,-0.18,0.07,0.45,-5.14,-1.55,-0.71,0
-0.21,0.62,-0.93,2.2,1.56,30.35,-1.37,0.19,-0.01,-4.04,11.1,-19.39,-0.33,0.37,-0.45,8.53,5.28,-14.38,0
-1.11,0.32,-0.48,-35.89,-2.83,3.49,0.13,-1.01,-1.06,-19.18,19.4,0.14,-0.78,-0.08,0,-5.14,13.1,29.56,0
0.24,0.62,0.72,15.38,19.63,11.3,-0.62,-0.26,-1.51,-2.09,2.31,1.11,0.57,0.07,0.15,-5.63,-7.9,-0.22,0
0.39,-0.28,0.57,-12.94,-3.81,-5.3,-1.22,0.64,-0.61,5.72,-2.08,-5.23,0.42,0.37,1.05,-14.42,1.38,2.22,0
-0.81,0.47,-0.33,-7.08,2.05,11.79,-0.77,-0.41,-0.61,-2.58,-8.92,-0.84,0.27,1.27,0.45,4.62,-1.55,-10.48,0
-0.51,-0.73,0.12,-20.75,3.03,-15.55,0.43,-0.11,-0.91,-1.6,13.54,0.14,-0.78,-0.38,0.75,1.21,6.26,-4.13,0
0.54,0.32,0.72,-5.62,2.54,-5.79,1.63,-0.86,1.04,6.21,-18.69,5.51,-0.18,-0.68,0.45,-13.44,-1.55,8.08,0
0.39,1.67,-1.08,2.2,6.93,-15.06,-0.47,-0.11,0.29,-13.32,3.29,5.51,1.32,-0.68,-0.9,7.55,-3.99,-19.27,0
-0.66,0.32,-0.03,-2.2,-2.83,-1.39,-0.77,-0.11,0.29,-8.93,-1.6,-1.82,-0.03,-0.38,0.75,0.72,0.4,-6.08,0
-0.21,-0.58,0.72,1.22,1.56,-6.27,-0.17,0.49,0.44,1.33,-1.6,-7.68,-0.78,-0.08,-0.75,2.18,8.21,-6.57,0
-0.21,-1.33,0.72,7.57,-2.83,-1.39,1.18,0.34,0.29,0.84,-5.99,3.55,0.27,-0.68,-1.35,6.09,6.26,-7.55,0
0.24,-0.88,-0.93,-3.66,-7.71,1.05,-0.62,-0.26,0.44,6.21,0.36,1.6,1.17,-0.38,1.8,4.14,-7.9,5.15,0
-0.81,0.77,0.12,-5.13,-6.25,1.54,-1.22,1.09,0.29,-0.14,-3.06,3.55,-0.03,1.42,-0.45,2.18,-9.37,-2.18,0
0.54,1.37,1.02,6.1,9.38,0.07,-0.77,0.64,-0.16,-8.44,10.12,-16.46,-0.63,-0.23,0.45,10.48,0.4,0.75,0
-1.11,1.37,-0.48,7.57,4,-2.37,-0.62,0.94,0.44,-4.53,3.29,11.37,1.17,0.67,0,8.04,-2.04,-5.11,0
-0.06,0.02,1.32,-9.52,-10.16,5.93,0.58,-0.56,-1.51,3.28,12.56,8.44,0.42,-0.08,-0.45,-0.75,4.31,3.19,0
-0.84,-0.19,-0.64,12.29,7.72,1.97,-0.72,0.37,1.11,3.13,6.87,-8.18,0.54,0.2,0.65,2.75,7.38,-0.21,0
-0.09,0.11,0.26,-1.87,7.24,-7.3,0.18,1.12,-0.69,0.2,22.98,-40.41,1.14,0.05,0.5,-18.74,13.24,18.34,0
0.21,1.16,-1.54,3.98,5.28,-2.42,-1.92,0.82,0.36,4.11,-1.44,-8.18,1.59,0.05,0.5,11.05,4.45,-5.58,0
1.41,-0.04,-1.24,0.08,-4.97,9.3,0.18,0.07,1.11,-1.75,1.49,-7.2,0.24,0.2,-0.1,-3.6,1.52,4.67,0
-0.69,-0.79,-0.79,-10.66,-4.97,-10.23,-0.42,-1.28,-0.54,-7.61,3.94,2.08,-0.21,-0.55,0.65,0.8,0.55,4.67,0
0.51,-0.04,0.41,4.47,-18.64,8.81,-2.22,1.12,-0.69,-5.66,-2.41,5.49,-0.36,-1.45,0.5,7.63,2.01,-6.56,0
-0.09,0.11,-0.64,-3.34,4.79,9.79,-1.02,-0.68,0.06,14.85,4.91,-11.11,0.39,0.5,0.05,4.21,-10.68,5.65,0
-1.14,-0.04,-0.34,-29.71,-51.85,189.47,-0.27,-0.38,-1.14,45.12,-33.66,-166.38,-0.81,0.8,0.05,-72.93,32.77,106.72,0
-1.59,0.71,-0.34,6.91,12.12,-23.91,-0.72,-0.23,-1.74,-11.03,11.75,-34.06,0.99,1.4,0.65,-9.46,9.82,5.65,0
0.36,-0.19,-0.19,3.01,-0.58,-3.89,-1.92,1.57,-0.69,8.01,1.98,5.49,-0.06,0.5,0.5,8.12,7.87,-0.21,0
-0.54,0.56,-0.19,7.89,11.63,1,-1.02,-1.13,-1.14,-1.26,11.26,2.08,-0.81,1.55,1.85,6.66,-2.87,-7.05,0
-0.24,-0.79,0.41,3.5,2.84,-0.47,0.18,-0.38,-1.14,1.18,4.91,2.08,1.59,-0.25,1.25,3.24,-6.29,5.16,0
-0.24,1.16,-0.04,11.8,11.14,3.93,0.18,0.82,-0.69,-3.71,8.82,7.45,-0.06,0.05,0.5,8.12,-5.8,9.07,0
-0.84,0.86,0.26,-6.27,3.82,4.41,0.33,0.97,-0.54,9.97,29.33,2.56,0.69,0.8,1.85,-4.09,-11.66,-3.14,0
0.51,0.71,0.71,2.52,8.21,0.51,0.78,0.22,0.21,-1.26,10.77,-12.57,-0.06,-1,1.25,3.73,0.06,2.72,0
0.21,0.41,0.71,-8.71,15.54,-1.93,0.18,-0.38,1.56,-8.1,24.93,0.12,-1.26,-0.25,0.5,7.63,-0.92,-0.21,0
1.86,-0.04,-0.79,6.91,15.05,4.9,1.23,0.52,2.16,8.5,21.51,15.75,0.24,1.4,0.65,1.77,-0.43,8.09,0
0.21,0.71,0.41,0.08,9.68,-4.86,1.53,0.52,2.16,-1.75,13.7,1.1,0.39,0.8,2.3,-2.13,-8.24,19.81,0
-0.54,0.11,0.56,23.03,11.63,78.14,2.13,-1.13,3.51,-6.15,24.44,6.47,0.24,-0.55,1.7,13,-3.85,-6.56,0
0.81,0.56,1.31,-13.11,20.42,-8.28,1.98,0.22,2.46,-7.61,31.77,-38.94,0.54,0.65,1.7,1.77,4.94,45.69,0
-0.84,0.56,0.26,125.08,-52.82,-94.71,0.93,-1.13,1.56,-86.71,83.04,59.2,-0.66,-0.1,-0.1,-239.93,21.54,16.88,0
0.51,-0.04,0.41,4.96,-12.78,11.74,0.18,0.37,1.56,17.78,2.96,-15.99,0.24,0.95,-1.9,22.77,9.82,-0.21,0
0.81,-0.19,-0.64,-3.34,0.4,-5.35,0.18,0.07,0.06,-9.57,2.47,-0.37,-0.06,-0.7,0.05,2.26,-5.31,12,0
-1.74,-0.19,0.56,3.98,-5.46,-1.45,0.78,0.97,-0.24,8.99,0.52,-0.85,1.59,1.85,0.5,1.77,2.01,-3.63,0
-1.14,0.41,-0.34,3.5,4.31,-4.37,0.78,0.22,0.21,0.69,-6.32,1.1,-1.56,0.05,-1.45,-5.06,-3.85,5.16,0
-1.14,-0.49,0.41,-0.41,-4.48,0.02,0.93,-0.38,-0.69,0.2,-12.18,-4.27,-0.36,0.05,1.55,-4.09,-0.43,11.02,0
0.21,0.71,-0.04,6.43,-1.06,-15.61,1.23,-0.23,-0.24,4.59,-11.69,-10.62,-0.66,0.2,0.65,-6.53,2.99,6.63,0
1.11,-0.19,0.56,-7.73,-0.58,15.64,0.78,0.22,0.21,-5.66,0.52,-5.25,0.24,-0.55,0.2,-5.55,11.29,3.21,0
-0.54,0.56,-0.19,0.08,5.77,-13.65,-0.72,-0.38,0.06,2.64,11.75,3.05,-0.21,0.2,-0.1,-13.36,3.96,8.09,0
-2.19,1.76,0.56,1.05,-1.55,9.79,-0.27,0.82,1.11,-8.1,10.77,-24.78,-0.21,-0.1,0.2,-9.46,0.55,4.67,0
-0.09,-0.64,0.26,3.98,18.47,21.99,0.18,-0.68,-0.69,1.18,-4.85,1.59,-0.06,-0.7,0.05,4.21,2.5,-17.79,0
0.96,1.16,-1.54,6.43,-24.99,10.27,0.48,-0.68,0.36,-8.1,3.94,-2.32,0.54,0.65,-0.1,-1.65,6.89,4.18,0
0.51,-0.04,-1.54,3.5,3.33,-0.96,0.48,1.87,1.11,-4.68,1.98,-24.78,1.59,0.5,-0.25,-8.97,-1.41,2.72,0
0.36,0.11,-0.64,-15.55,6.26,9.79,0.18,-0.38,0.81,3.13,2.96,-2.81,-0.21,-0.55,0.2,5.68,6.41,-6.56,0
-0.09,0.11,-1.39,-6.27,-12.78,2.95,-0.42,-1.28,1.41,-2.73,-2.9,0.61,0.24,0.2,0.65,-11.9,2.99,5.65,0
-0.54,-0.64,-1.84,-5.78,-12.78,5.39,-0.12,-2.03,0.21,-7.12,2.96,-5.25,0.99,-0.1,-0.1,-7.02,-5.31,0.77,0
-1.59,-0.49,-0.79,4.47,11.14,-12.19,-0.87,0.22,-0.24,3.62,3.94,-0.85,0.24,-0.1,-0.85,3.24,-5.8,11.02,0
-0.09,0.56,-0.19,-2.36,2.35,-2.91,1.38,-0.68,0.36,-3.71,-16.08,-1.34,1.14,-0.25,-0.7,1.77,0.55,7.11,0
-0.09,-0.64,-0.64,-7.73,-5.46,-11.7,1.38,0.37,0.36,-3.71,0.03,-9.16,-0.21,-0.1,-0.1,-2.13,0.06,15.9,0
0.21,-0.49,1.16,4.47,14.56,4.9,0.48,1.12,0.81,7.52,18.1,5.49,-1.56,0.05,-1,4.7,-4.82,-4.12,0
0.51,0.71,-1.24,-24.34,-7.41,4.9,-0.27,0.37,0.81,-2.73,-7.29,17.21,-0.36,1.1,-0.7,13,7.87,-4.12,0
-1.74,-0.94,0.26,-8.22,-3.99,6.86,1.38,1.57,0.81,-1.75,9.79,8.42,-0.06,-0.7,-0.7,7.63,-4.82,4.67,0
0.36,0.11,-0.64,5.45,-5.95,-5.84,-0.72,1.57,0.36,9.97,-1.44,3.54,-0.06,0.5,0.05,1.28,5.43,-0.7,0
-0.69,-0.04,-0.04,4.96,-0.58,-2.91,0.33,-0.53,-0.24,-12.5,-3.88,12.82,1.29,-0.55,0.65,1.77,-3.36,-6.07,0
-0.24,-0.04,0.41,2.52,15.54,-13.65,-0.72,1.12,1.56,1.67,-5.83,-13.06,-0.66,0.65,-0.1,-7.99,0.06,3.7,0
0.21,-0.04,-0.04,2.52,0.4,1.48,1.53,-0.53,-1.29,2.64,2.96,4.52,0.39,0.5,-0.7,1.77,-2.38,2.23,0
-0.69,1.16,0.71,12.77,3.33,8.81,0.48,-1.43,-0.39,-0.29,6.38,-11.11,0.39,-0.25,1.25,-3.11,0.55,-11.93,0
1.11,-0.19,-0.64,2.52,-5.46,4.9,1.38,-0.68,-1.14,3.62,-6.32,-6.23,-0.06,-0.25,0.05,-1.65,2.5,5.16,0
0.21,0.41,-1.24,2.03,-1.55,-14.63,-0.42,-0.53,0.96,-9.08,9.31,-3.3,0.39,0.5,-0.7,-5.55,-6.29,7.6,0
0.81,-0.19,-0.19,6.43,2.35,9.3,0.33,0.22,0.21,5.57,5.89,-16.48,0.24,-0.1,0.65,11.05,-7.27,-9.98,0
-0.55,-0.13,-0.66,-18.41,6.36,4.47,-0.85,-1.27,0.74,-0.82,11.16,-37.12,-0.79,-1.2,0.28,50.94,-32.85,-106.76,0
-0.7,1.67,-0.36,-17.43,2.94,-36.55,1.25,0.53,-1.21,-5.7,-5.93,2.92,0.56,-0.3,-0.17,6.02,14.02,14.82,0
-0.7,1.22,1.14,-5.71,-14.64,53.78,0.2,0.08,1.19,5.53,2.86,-11.24,-0.49,-0.3,-1.67,-5.7,7.68,15.31,0
0.35,0.32,0.99,-2.78,2.94,-23.85,-0.4,0.23,0.29,-2.77,-13.74,45.88,-1.54,-0.15,-0.02,-48.18,17.93,49,0
0.5,0.47,0.69,1.12,6.85,54.76,-0.25,0.08,0.14,-8.14,11.16,-15.64,0.41,0.6,-0.32,16.76,-7.46,-43.77,0
-0.55,1.82,0.24,2.59,11.24,76.25,0.05,0.23,0.29,-10.1,-19.6,103.99,0.41,0.6,0.73,16.27,-6,-32.54,0
0.35,1.07,-0.96,-12.55,-7.31,-36.55,0.8,-0.22,0.74,3.09,14.58,-110.85,-0.19,0.75,-0.17,-76.5,21.84,166.68,0
0.2,0.47,0.69,-8.15,-0.97,35.23,-0.4,0.98,0.29,-26.21,2.86,196.27,-0.19,0,-0.92,158.36,-52.87,-331.86,0
0.2,1.22,0.39,-11.08,18.56,21.07,1.25,0.23,1.79,1.62,5.79,-1.97,0.41,-0.15,-0.77,9.92,-5.51,-18.87,0
0.95,0.02,-0.36,-6.69,-5.85,11.79,1.7,-0.22,1.04,13.34,10.67,37.58,0.56,-0.3,-0.17,13.83,1.33,-25.21,0
-0.55,1.07,1.29,48.97,-5.36,-45.82,0.65,0.83,-0.61,-52.09,48.76,-76.19,-1.54,-0.6,0.28,-61.86,10.12,48.03,0
1.85,-0.28,2.34,-0.34,0.5,0.07,-0.85,0.23,-0.46,46.54,-9.35,-7.34,0.11,0.9,1.48,46.05,-22.11,-35.47,0
0.5,2.42,-0.81,-6.2,26.38,6.42,0.95,-0.37,1.64,-4.73,27.76,33.19,1.01,0,3.13,-23.28,4.26,27.52,0
-0.25,0.47,-0.81,-6.2,-0.48,-88.79,2.3,-0.37,0.89,1.62,22.39,61.02,0.56,0.45,2.68,-44.28,9.14,66.09,0
-0.1,0.62,0.24,-343.6,-396.47,-196.22,0.35,-1.72,1.49,-1617.52,1356.87,1006.76,0.26,-0.3,4.18,1076.82,141.46,647.64,0
0.5,0.92,-0.06,4.05,2.45,-8.23,-0.4,0.98,-0.91,4.06,6.77,-43.47,0.86,0.9,-0.77,-13.52,5.72,31.91,0
-0.1,-0.13,0.99,-4.74,-2.92,-24.34,0.65,0.08,0.14,5.04,-4.95,-5.87,-0.49,-1.8,0.88,3.57,-2.58,10.43,0
0.2,-0.28,-0.81,5.52,4.4,0.07,1.4,0.08,0.14,-2.29,6.28,-8.32,0.56,0,-0.62,-7.66,9.14,14.34,0
0.5,0.47,1.14,7.47,-4.38,3.49,0.8,-0.22,-0.46,2.11,2.37,-15.64,0.11,-0.6,-0.02,-12.05,3.77,19.22,0
-0.85,0.62,-0.66,-0.34,3.43,-60.47,-0.25,0.38,-0.61,-3.26,-18.13,1.94,-0.34,0.15,-0.32,-1.31,-8.93,-33.03,0
-0.55,1.37,0.24,29.93,9.29,30.84,-0.4,0.23,0.74,-32.56,-43.04,300.77,0.56,-0.3,1.33,98.79,-95.35,-360.18,0
-0.25,1.22,0.69,4.54,5.38,21.07,-0.4,-0.52,-0.16,9.92,-5.93,-2.94,-0.49,-1.05,0.58,5.53,-1.11,-21.8,0
-1.15,-0.28,-0.36,-0.83,9.29,-12.62,0.35,0.23,1.04,-7.66,-11.3,10.24,-0.19,1.05,0.58,16.27,-4.53,-17.4,0
-0.55,0.62,0.24,-4.25,9.29,16.68,-0.4,1.28,0.74,-9.12,-5.93,-12.71,0.86,0.9,-0.32,9.92,3.28,-7.15,0
-0.1,0.62,-0.66,-2.29,14.17,-10.67,0.35,-0.97,-1.21,7.48,-18.13,7.8,0.26,0.75,0.58,10.41,2.3,-1.29,0
1.4,0.92,0.69,4.05,-3.9,-20.92,0.65,0.83,0.14,15.78,-4.46,3.89,0.26,1.05,-0.62,-18.4,-1.6,-1.29,0
-0.85,-0.13,0.54,6.98,-21.96,-135.67,-0.4,0.98,0.29,13.34,11.65,7.8,-2.44,0,-0.62,-13.03,-3.07,32.89,0
0.2,0.47,0.69,3.08,15.15,16.19,-1.15,-0.22,0.29,-25.23,-15.21,-20.52,0.11,-1.2,0.28,-22.79,-2.58,58.77,0
-0.7,0.92,0.39,-0.83,1.96,-24.83,1.7,-0.22,-0.46,-5.21,-12.28,-1.48,-0.34,-0.6,-0.32,-3.75,6.7,18.73,0
-0.25,0.47,0.39,-1.81,1.47,4.47,1.25,-0.52,-0.16,-2.29,-3.97,13.17,0.86,-0.15,0.28,16.27,6.21,-8.61,0
-1.15,1.67,-0.06,3.56,8.8,-2.86,-0.85,0.23,-0.91,-6.19,-4.46,-15.64,1.01,0,0.13,0.64,-0.62,2.62,0
-0.1,0.32,-0.21,7.47,3.43,-10.67,0.8,-0.22,-0.46,-0.33,-21.06,-20.03,-0.94,1.05,-1.67,-15.96,4.75,1.64,0
-0.55,1.07,-0.21,-10.6,0.01,7.89,0.35,-0.52,-0.16,-2.29,12.63,-55.19,-0.34,0.6,-1.07,-3.26,-1.11,-3.24,0
-0.25,-0.28,0.39,-2.29,9.29,-18.48,0.8,-0.22,0.74,-3.75,-18.62,11.22,0.41,-0.15,-1.07,-20.84,16.95,33.87,0
-0.7,0.92,0.39,-1.81,1.96,2.03,0.2,0.08,1.64,9.92,9.21,2.43,-1.09,-1.2,-1.07,6.02,2.3,-11.54,0
-0.55,-1.63,0.99,-8.64,7.82,24,0.95,-0.37,-0.31,0.64,-8.37,-14.66,-0.34,-0.6,-0.02,-1.8,-1.6,-6.17,0
-0.1,0.62,0.54,2.59,-5.85,-30.69,0.05,0.53,-0.16,4.55,3.84,14.15,-1.09,0.15,-0.02,-13.52,2.3,13.36,0
0.5,1.22,0.69,0.63,-6.34,-42.41,0.65,0.38,0.89,21.15,-20.58,27.82,-0.49,0,0.88,-15.47,4.75,11.41,0
0.5,-0.28,-0.36,-1.32,4.89,97.24,1.7,0.23,-0.46,10.9,-2.51,5.36,0.11,-1.65,-0.32,23.59,-16.25,-62.32,0
-0.7,0.02,-0.06,-18.41,7.82,20.09,-0.55,0.83,-0.31,-9.61,20.93,-109.39,0.11,1.35,0.28,-14,12.56,94.41,0
0.5,0.47,-0.06,-8.64,10.75,15.21,-0.25,0.08,-1.06,14.32,-18.62,9.26,0.26,0,0.13,16.27,3.28,-10.57,0
-0.7,1.67,1.14,3.08,-6.83,2.52,0.05,-0.22,-0.46,4.06,2.86,0.47,0.56,0.75,0.88,5.53,-7.46,5.55,0
-0.25,0.02,-0.81,5.03,7.82,6.91,0.2,-0.67,0.14,-1.31,-0.56,-5.87,-0.94,-0.3,0.13,-2.77,8.65,-6.66,0
0.5,0.47,-0.06,-1.32,7.82,-2.37,0.8,-1.27,-0.91,-8.14,-7.88,14.63,-0.34,0.15,-0.02,2.6,3.28,-6.17,0
0.2,0.02,0.69,-3.27,7.33,4.96,0.05,-0.52,0.29,14.32,11.16,-3.43,-0.49,0,-0.62,1.62,4.75,-12.52,0
0.2,-0.73,-0.36,12.84,0.01,-0.9,-0.4,-0.22,0.29,6.99,-2.02,-8.32,-0.34,-0.15,0.28,9.43,-1.6,-0.8,0
0.8,1.07,-0.21,-7.18,-4.87,19.6,0.05,1.28,-0.16,-8.14,-9.35,5.84,0.86,1.35,-0.02,6.5,-2.58,-2.27,0
-1.6,0.02,-0.06,-8.64,3.43,8.37,0.2,-0.67,-0.31,-11.07,1.88,9.75,-1.54,0.6,-0.02,6.02,5.23,-5.2,0
-0.7,0.92,-0.06,-11.08,3.43,9.35,-0.85,0.98,0.29,11.88,6.77,-1.97,-0.19,-0.3,-0.92,-1.31,0.35,8.48,0
-0.25,-0.28,-1.56,-17.43,-0.97,-4.81,-0.4,0.98,0.74,5.53,-1.04,1.94,0.26,-0.75,0.58,12.36,9.63,9.45,0
0.71,-0.84,0.1,-0.61,-7.28,-0.62,-0.02,0.55,-0.4,-1.1,-7.69,19.05,1.29,0.54,1.01,9.92,-2.95,9.78,0
-0.64,0.51,0.4,8.18,-5.32,18.91,0.28,1.15,-1.3,4.76,-5.73,10.26,-1.41,-0.66,0.26,-1.31,4.86,8.32,0
0.56,-0.24,0.4,-3.05,0.05,17.44,-0.17,0.85,-0.85,-2.56,5.5,-5.37,0.69,-1.56,0.86,-12.06,3.89,11.25,0
-0.04,0.66,0.1,-8.42,12.74,26.72,-0.92,0.85,-0.55,2.81,12.82,-39.06,0.69,-0.36,0.11,0.64,7.3,10.76,0
0.56,-0.24,-0.8,8.67,-6.79,-67.03,-1.37,0.1,-0.55,14.04,-8.66,20.51,1.14,-1.56,0.11,-40.86,5.35,61.54,0
0.41,0.66,0.55,-0.12,9.33,9.14,0.58,1.9,-0.1,-0.12,5.5,-54.19,-0.96,0.54,0.71,-10.59,-4.9,-7.31,0
0.71,-0.54,-0.65,-0.12,-10.21,-14.78,-0.02,0.55,-0.4,-5.98,-15.01,49.81,0.39,-0.36,-0.19,10.89,-6.86,-15.61,0
-0.49,-0.09,-0.2,4.27,2,-6.97,-0.02,1.3,-0.4,-2.56,19.17,9.28,-0.96,0.09,0.71,-4.73,-1,1.97,0
0.56,0.06,-0.5,8.67,-1.9,13.05,-0.92,1.15,0.65,-4.52,2.08,-9.27,0.24,0.84,-0.34,7.96,-9.79,-14.15,0
-0.04,1.11,-1.1,-5,11.77,19.39,-0.62,1.15,-1.3,-16.24,-3.78,19.05,-0.66,0.09,-0.04,6.01,5.35,-27.82,0
0.56,0.51,-0.05,2.32,-1.42,73.59,-0.77,0.55,0.5,-7.45,-1.34,-4.39,0.24,-0.66,-1.09,7.48,12.68,-10.73,0
-0.49,0.66,0.55,-36.74,-30.22,-94.86,-0.17,-0.35,0.2,10.13,37.72,-290.52,1.14,-0.81,-0.64,-94.09,25.37,150.41,0
1.16,0.66,-1.1,10.13,2,-5.02,0.28,0.1,0.95,-2.08,-16.47,9.77,0.39,-0.06,-0.64,-53.07,16.09,66.42,0
0.56,-0.24,-0.5,-20.14,2.98,34.04,-1.37,-0.65,0.65,4.27,-1.83,-17.57,1.14,0.99,-0.19,7.48,-9.79,-19.52,0
-0.49,-0.09,-0.2,-20.63,27.88,-26.5,-0.02,0.55,-1.45,-8.42,40.65,38.09,-0.06,-0.81,0.86,12.36,-2.95,-3.4,0
-0.64,0.81,-0.5,-11.35,0.54,-54.82,-1.37,1.6,-1.3,14.53,16.73,0.98,-0.81,0.69,-0.19,37.75,9.75,26.38,0
1.16,0.36,-0.2,2.81,6.4,55.53,-1.82,1.9,0.2,5.25,18.19,4.4,0.69,-0.36,2.36,5.03,-21.02,18.08,0
0.11,0.06,1.9,9.64,25.44,19.88,0.43,0.25,0.8,3.78,14.78,37.6,0.24,-0.21,2.21,11.38,-9.3,20.52,0
0.41,0.36,1.3,12.08,5.42,-64.1,1.33,-0.2,2.75,7.69,28.45,8.79,2.19,0.54,2.96,-28.17,1.93,82.05,0
0.11,0.06,0.7,897.83,455.13,989.55,1.93,-1.1,1.4,515.5,-1109.25,1007.76,0.99,0.54,-0.04,-984.22,-25.9,308.61,0
-0.34,0.81,0.7,0.85,5.42,-2.09,0.58,0.1,-0.1,-0.12,-2.31,15.63,-0.06,0.39,-0.64,9.43,-5.88,-10.24,0
0.11,-0.69,0.7,5.25,-7.76,14.02,-0.17,0.1,0.2,1.34,7.94,-14.64,0.24,-0.96,0.71,-13.03,4.86,8.8,0
1.31,-0.24,-0.8,4.76,2.98,3.77,0.43,-0.95,1.25,-6.47,-11.59,29.79,0.24,0.84,0.26,14.8,-4.41,-46.86,0
-1.09,-0.99,0.7,5.74,-10.21,-7.95,0.43,-0.5,-0.4,6.23,3.54,-0.48,0.24,-1.71,-0.34,3.57,-6.86,-3.4,0
-0.34,0.51,0.7,8.67,12.74,11.09,-0.32,1,0.05,5.74,-1.34,-41.01,-0.36,0.39,-0.64,-2.78,-0.51,8.8,0
0.11,-1.44,0.4,0.85,-2.88,-15.27,-0.32,0.25,0.5,3.3,-12.08,75.2,-0.36,-0.36,1.91,-22.31,-0.02,27.36,0
-0.34,1.26,-0.05,15.5,1.51,-11.37,0.28,-0.35,0.2,16.97,7.94,-131.83,0.99,-0.21,-0.34,-119.48,53.2,209.49,0
-0.94,0.36,-0.2,-7.45,-2.39,-3.07,0.58,0.1,0.65,3.78,-3.78,20.51,-0.36,-0.81,0.11,7.48,5.35,-10.24,0
0.11,1.26,-0.5,1.34,-12.16,20.86,-1.22,0.25,0.05,-7.93,1.59,-12.69,-0.81,-0.36,0.56,-9.13,11.21,0.5,0
0.71,1.11,0.1,6.71,0.05,-2.58,-0.02,0.55,0.5,-14.28,-6.22,14.65,-0.96,0.54,1.46,10.41,-8.81,-25.38,0
-0.49,0.36,0.85,10.13,-4.35,-15.27,0.58,-0.65,-0.1,1.34,-5.73,-20.01,1.74,-1.26,-1.54,-1.31,-9.79,8.8,0
0.11,-0.24,1.45,1.34,3.47,64.32,-0.32,-0.5,0.8,7.2,4.52,-41.01,-0.06,0.39,0.11,-7.66,13.65,-7.31,0
0.71,0.36,0.85,2.32,-12.16,-16.25,-0.77,-0.2,1.55,9.64,-2.8,6.35,-0.06,-0.06,0.86,-16.45,-4.9,33.71,0
-0.49,-0.54,0.55,12.57,-6.79,17.44,0.88,0.25,-0.7,33.57,-18.43,-118.65,0.99,0.09,0.26,-84.32,40.51,116.23,0
-0.04,1.41,0.55,13.06,1.03,-11.37,0.58,0.4,0.2,4.27,-7.69,-1.46,-0.36,-1.11,1.31,-12.06,4.86,3.43,0
1.01,0.06,-1.7,8.67,-7.76,4.26,0.28,1.6,1.4,-6.47,-2.8,-9.27,1.59,0.39,0.86,4.06,3.89,-14.15,0
0.56,0.06,-0.5,2.81,-4.35,-11.37,-0.62,0.1,-0.1,13.06,0.62,-1.46,0.99,0.84,0.26,-4.24,0.96,3.43,0
-0.49,-0.09,0.55,4.27,0.05,2.3,0.58,0.85,0.2,0.85,4.52,-6.34,0.39,-0.36,-0.64,8.45,-11.74,4.9,0
-0.49,0.66,-0.2,3.78,2.49,27.21,0.43,0.55,-0.4,-5.98,-0.85,7.33,-0.66,-0.21,0.71,18.22,-3.93,-19.52,0
1.01,0.51,-0.8,-9.89,11.77,1.82,0.28,-0.65,0.2,-11.84,7.94,41.02,-0.66,0.84,-0.04,-3.75,4.37,2.46,0
0.71,0.36,0.1,-0.61,7.86,6.7,-0.02,-0.2,0.05,-5.49,-2.8,-2.92,-1.26,-0.36,0.56,6.5,-1.48,-21.47,0
1.01,0.81,1.15,4.76,-6.79,-2.58,0.58,1.6,0.65,3.78,1.1,17.09,-1.56,-0.36,-0.94,-1.8,-1.48,4.41,0
-0.04,0.66,0.1,12.57,6.4,-1.6,-0.62,0.85,0.2,-7.45,-4.76,10.75,-0.96,-0.66,2.21,9.43,-4.41,0.01,0
-1.39,-0.09,0.1,-3.54,0.54,0.35,-0.62,0.4,-0.1,10.13,-5.24,-1.95,-1.26,1.44,0.11,-7.66,4.37,17.1,0
-0.04,0.36,1.3,-14.77,-0.93,-10.88,0.28,0.85,-0.1,-7.45,4.52,-7.81,0.39,0.99,-0.19,-0.83,-12.23,-1.94,0
-0.34,0.06,0.7,3.78,-2.88,12.56,-0.02,1,0.05,-6.47,4.52,7.33,-0.96,-0.66,-0.34,0.64,-12.23,-11.22,0
-0.34,-0.24,-0.5,8.18,1.03,-16.25,-0.32,1.75,-0.4,12.08,3.06,2.93,0.54,-0.21,-0.79,0.15,-1.97,2.94,0
2.06,-1.29,-0.65,2.32,11.28,2.3,0.43,1,-0.4,22.83,16.24,-40.03,0.39,-0.36,0.86,13.82,-10.76,-3.89,0
-0.64,1.26,-0.05,-13.31,-0.93,-4.04,-0.77,0.55,0.05,8.18,-6.22,-5.85,0.54,-0.66,0.26,2.59,-0.02,13.2,0
0.11,-1.44,-0.05,11.11,1.03,5.23,0.28,-0.35,0.2,1.83,2.08,-2.44,-0.06,0.99,-0.64,0.15,-1.48,0.5,0
-1.55,-0.74,-0.58,-8.64,-2.54,-0.6,-0.32,-0.28,0.22,2.89,5.83,-4.69,0.09,0.81,0.47,-7.87,7.41,15.33,0
0.1,-0.74,1.07,-0.34,-6.45,-10.36,-0.32,0.02,-0.23,-6.39,-2.48,3.61,1.14,0.96,0.17,-2.99,0.58,11.91,0
-0.5,-0.14,-1.93,-10.11,11.13,-3.53,-0.32,1.97,-0.53,-14.2,14.61,5.57,-0.66,-0.24,-0.28,14.59,-0.4,-5.18,0
-0.5,0.31,-0.28,-6.69,8.2,-9.87,-0.32,0.47,-0.53,6.8,7.78,-8.11,0.39,0.21,0.92,-0.06,-1.38,5.07,0
0.4,0.31,-0.73,2.1,-3.03,-4.5,-0.62,-0.73,-1.28,-7.85,-0.03,0.68,1.44,-0.84,-0.88,16.54,-1.87,-7.62,0
-0.95,-0.14,-0.73,8.45,7.71,-14.76,-0.32,0.02,-1.28,-7.36,-5.89,-2.73,0.39,0.21,0.62,-5.92,4.48,17.28,0
-1.4,0.31,-0.28,1.12,2.83,0.87,-0.02,-0.58,-1.13,8.26,2.9,-2.73,0.39,-0.09,-0.88,8.24,4.48,-6.65,0
1.75,0.76,0.62,-1.32,-8.4,-19.64,0.13,1.52,-0.23,-4.43,2.9,6.54,1.29,0.81,0.47,3.85,-14.07,0.19,0
-0.65,0.01,-0.58,-2.29,-0.59,-6.46,-0.92,0.62,-0.38,-0.53,4.36,-16.41,1.29,-0.24,-0.73,-2.01,3.51,-8.6,0
-0.35,0.01,-0.58,-11.08,14.06,30.65,0.13,-0.28,-1.73,-1.5,-5.89,26.56,-0.51,0.21,-0.43,19.47,-7.72,-27.64,0
-0.5,-0.14,0.02,-7.18,2.34,-4.5,0.13,0.47,-0.23,2.89,1.43,29,0.54,0.06,0.77,-15.68,-3.33,17.77,0
0.4,0.31,0.02,-4.25,12.1,-3.53,-0.32,-1.78,-1.28,-4.43,-15.66,3.61,-0.81,1.41,-0.88,1.41,12.29,8.98,0
-0.65,0.46,-0.58,1.12,-6.45,-1.08,0.73,1.82,-0.38,4.84,8.75,5.57,-0.06,-0.54,0.17,8.73,6.92,-1.27,0
-0.05,0.61,-0.28,0.15,-7.43,1.36,1.63,0.17,-0.08,7.29,3.87,12.89,-0.06,0.21,1.37,-4.45,2.04,-11.53,0
0.1,1.66,0.32,8.45,-0.59,-1.57,-0.62,0.02,-0.23,-1.02,-0.52,12.4,1.44,-0.84,-0.43,0.92,-5.28,1.66,0
-0.5,0.61,-0.73,-7.18,10.15,-13.78,0.88,0.47,-0.53,-5.9,11.2,-1.27,-0.81,0.66,-0.13,-1.52,-1.87,-16.9,0
-0.35,0.76,1.37,-11.57,1.36,-8.41,-0.02,0.62,-0.83,12.66,0.45,7.03,0.09,0.51,-0.73,-5.92,-4.79,8.49,0
-0.65,-0.29,0.32,-9.13,1.36,4.29,-0.62,-0.73,-0.23,-5.9,-1.01,-0.29,0.39,0.21,0.17,-4.45,-1.87,-0.3,0
-0.5,-0.89,0.77,-15.97,1.85,21.38,0.58,0.02,-0.98,5.33,21.94,0.2,-0.06,0.96,-0.43,-6.41,-1.87,-5.18,0
0.7,-0.89,0.47,-17.92,4.29,48.72,-0.02,-0.58,-0.83,-10.78,22.43,-10.55,0.09,-0.24,1.22,91.25,2.53,-3.72,0
-1.4,1.81,0.02,-4.25,8.2,-12.8,2.53,0.47,0.52,-1.5,17.54,-7.13,0.54,1.11,1.52,4.34,8.39,3.61,0
-0.65,0.76,1.37,-0.83,18.94,6.73,1.33,0.77,0.52,-11.27,17.54,11.43,0.84,0.81,2.57,7.75,4.48,9.96,0
1.15,1.36,0.02,-9.62,8.2,6.73,0.88,0.47,2.02,-2.97,23.89,9.96,0.09,-0.69,1.22,-12.27,-4.79,5.07,0
0.4,1.81,-0.73,0.63,6.73,4.78,1.78,0.02,1.72,-3.95,11.68,-2.73,2.04,0.51,1.52,8.24,-17.98,-2.25,0
0.1,0.01,0.62,-7.67,19.43,-2.06,0.28,-0.88,0.37,5.82,21.45,-3.71,0.69,-0.84,1.67,-3.96,1.55,-4.69,0
0.1,1.21,1.37,-0.34,26.75,-58.7,0.58,-0.28,-0.53,-1.99,19.5,-8.11,1.14,0.96,2.12,-8.85,4.48,-8.11,0
-0.65,-0.74,-0.58,2.1,9.17,-0.11,0.73,0.17,1.87,-6.87,8.27,5.57,0.09,0.81,2.27,16.54,-12.12,-8.11,0
0.4,0.61,0.77,-1.32,18.94,16.98,0.73,0.62,1.57,-17.13,32.68,4.59,0.09,0.51,2.57,5.8,-8.7,3.12,0
-0.5,1.36,0.02,1.61,20.41,24.31,0.73,0.92,1.87,13.63,16.08,1.17,1.44,0.21,1.37,-5.43,-1.38,6.05,0
-1.55,1.21,-1.78,24.56,-7.92,60.93,0.13,-1.78,0.52,11.68,9.24,123.24,1.29,-0.24,3.02,-71.84,-0.89,89.55,0
-0.35,0.76,-0.58,16.26,30.66,205.95,-1.52,-1.03,-0.23,289.02,-159.7,-178.03,-0.51,0.66,-0.13,-47.42,-33.6,20.7,0
0.1,-0.29,-0.58,-0.83,0.87,0.38,1.18,0.17,-0.08,10.21,0.94,-4.2,-0.21,0.06,-0.28,-9.34,2.53,6.54,0
-0.65,0.76,-0.58,-6.69,-6.94,2.33,0.58,0.47,0.97,-3.46,5.83,-5.18,-0.66,-0.69,-0.28,4.82,-3.82,-5.18,0
-1.4,-0.59,-1.18,-1.81,-0.1,-4.01,-0.47,-0.58,1.12,5.33,-3.94,-0.78,0.84,-0.24,0.77,3.36,-2.35,-4.69,0
-1.1,0.01,-0.13,-8.64,0.39,0.87,0.58,0.77,-0.53,9.73,1.43,6.54,1.14,0.21,0.62,1.89,-1.38,12.4,0
-0.5,1.06,-0.73,-8.15,-4.99,-4.01,-0.32,0.02,0.52,4.84,2.9,-9.08,-0.66,-0.24,0.77,2.87,2.53,0.68,0
-0.65,0.01,0.62,-12.55,9.66,-1.57,0.73,0.17,-0.08,11.68,-1.99,-7.62,0.69,0.66,-0.13,5.31,-8.7,-1.27,0
-0.05,0.61,-1.18,-0.83,-10.36,3.8,-0.02,-0.13,0.37,1.43,-9.8,8.01,-0.66,0.51,0.77,10.2,-4.79,-3.72,0
0.55,0.01,1.07,-1.81,1.36,13.08,-1.22,0.17,0.37,26.82,-2.48,-54.49,-0.21,-0.24,-0.28,18.98,9.85,-17.88,0
-0.35,0.46,0.32,-6.69,4.78,-1.08,-0.32,-0.28,-0.53,4.84,1.92,11.91,0.39,0.96,-0.88,15.08,13.27,-6.65,0
0.4,-0.59,-0.28,11.87,1.85,-6.94,0.58,-0.73,-0.23,-8.83,7.29,10.45,-0.06,-0.54,0.62,-8.85,-8.7,1.17,0
-1.4,-0.59,0.02,-5.22,2.34,2.33,0.73,0.62,-0.38,-1.99,0.45,-10.06,-0.21,-0.24,-0.28,7.75,-4.79,-1.27,0
-0.5,0.31,0.47,0.63,1.36,-9.38,-0.32,-1.48,0.97,-2.48,4.85,-1.76,-1.11,-0.69,-0.73,15.57,-0.89,-8.6,0
-0.5,-0.14,-1.48,6.49,4.78,6.73,1.63,-0.13,-0.38,-2.97,0.45,-8.11,-0.81,-0.09,0.92,-0.55,-6.75,-9.58,0
-0.95,0.31,-1.48,-1.32,10.64,-7.92,0.88,0.47,-0.53,0.94,-5.89,-2.73,-1.11,0.51,0.02,3.36,4.97,-1.76,0
-0.35,0.01,0.32,-8.64,-4.01,2.33,-0.02,0.17,-0.38,7.29,-2.96,-2.25,-0.21,0.51,-0.28,-1.04,-4.79,-4.69,0
1.3,0.01,-0.58,-4.25,0.39,-1.08,-0.47,0.62,-0.08,2.4,7.78,-3.71,-0.51,-0.09,0.17,-9.82,-10.17,9.47,0
-0.35,1.66,-0.58,3.56,-9.38,-6.94,1.18,-0.13,0.37,-5.9,-10.78,12.4,-1.11,-0.99,-0.73,1.89,-8.7,3.61,0
-0.35,0.46,0.32,-7.18,-14.26,2.33,0.28,-0.58,-0.38,5.82,8.75,1.17,-0.51,-0.09,-0.13,3.36,-12.61,-6.65,0
-1.1,0.01,-0.13,6.49,0.39,-5.97,0.28,0.92,-0.08,6.31,-8.33,3.61,-0.21,-0.24,0.47,-17.64,-6.75,-2.74,0
1.8,-0.23,-0.88,-2.23,-4.24,0.65,-0.47,1.27,0.63,-14.72,11.32,-8.37,0.21,-0.16,0.97,4.75,-2.52,3.51,0
1.05,-0.68,-0.13,2.65,0.64,10.42,0.13,-0.38,0.33,-13.26,2.05,2.86,-0.09,-0.31,-0.68,-6.97,-4.47,6.92,0
-0.9,-0.53,-1.48,-9.56,1.62,8.96,1.03,-0.23,-0.57,8.72,-4.79,-13.25,-0.39,0.74,0.82,1.82,14.57,-8.7,0
-1.35,-1.28,-0.73,-9.56,-3.75,-1.3,-0.32,-0.83,0.78,16.53,-1.37,0.91,-0.24,0.59,0.22,-3.06,11.64,5.95,0
-0.3,1.27,-0.13,8.51,-1.8,0.65,0.73,-0.23,1.38,-4.47,8.39,-2.02,0.36,0.74,1.27,26.72,0.9,-2.35,0
0.15,-0.23,0.32,-1.74,-3.27,-2.76,-0.32,0.67,-0.42,-1.54,3.51,-9.35,-0.24,0.14,0.97,-0.62,19.45,16.2,0
-1.05,0.52,-0.88,3.63,-3.27,3.1,-0.92,0.52,0.18,-7.89,10.35,12.14,-0.24,0.59,-0.83,-10.87,-5.94,-5.77,0
0,-0.08,0.77,10.46,-0.34,-14.48,-0.47,-0.23,0.63,-3,1.07,3.84,0.36,-0.31,-0.98,3.77,-1.05,14.25,0
-0.3,-0.23,0.32,-7.6,-8.64,8.47,0.28,1.27,0.18,9.2,1.56,-16.18,0.51,0.14,0.22,4.26,-0.08,5.46,0
0.45,0.67,-1.18,-0.77,2.59,0.65,0.88,0.37,0.78,2.86,-6.25,4.33,0.96,0.89,0.97,9.63,4.8,-1.87,0
-0.3,0.82,0.62,56.36,-26.7,-41.83,0.13,0.67,-0.42,16.53,-29.2,3.35,-0.69,0.59,0.67,11.1,-9.84,-0.89,0
-0.9,-0.83,0.02,10.95,-12.54,-42.8,0.28,0.22,0.63,23.85,-0.88,-32.78,-0.69,-0.61,0.22,8.17,7.25,33.29,0
-0.9,0.67,0.02,13.88,27.5,42.16,0.43,-0.08,0.78,-1.54,6.93,38.99,-0.69,0.14,1.72,19.89,-22.05,-32.63,0
1.2,0.67,-0.73,2.65,7.48,5.05,0.43,0.37,2.73,-3,11.81,7.74,1.71,-0.16,1.72,7.68,-9.84,11.81,0
1.8,0.82,-0.13,4.12,11.87,6.03,1.33,-0.38,2.28,2.37,8.88,6.28,-0.09,-0.76,1.27,-3.55,-1.54,14.74,0
1.05,0.82,-0.58,-12,11.87,-1.79,0.13,1.57,1.98,13.6,7.42,-1.53,1.86,-0.31,2.32,15.49,-10.33,-0.4,0
-0.45,0.37,-1.18,1.19,18.22,-12.04,0.73,-0.53,1.68,-3,3.02,-4.46,-0.39,0.74,2.32,9.63,1.87,-0.89,0
0.6,0.82,0.62,5.58,16.26,-7.65,1.03,1.27,0.63,3.83,22.07,-11.79,1.11,0.44,2.32,-7.46,0.41,8.88,0
0,1.12,-0.28,0.21,20.17,2.12,0.73,-0.23,1.68,8.72,23.04,-2.02,0.36,1.04,0.82,14.52,-5.94,11.32,0
-0.3,0.07,0.32,-10.04,6.5,-0.81,0.13,-0.38,1.23,1.39,30.85,4.33,-0.39,-0.01,2.62,9.15,-10.33,6.92,0
0.75,1.12,0.47,-5.16,-2.78,-0.81,1.33,-0.08,2.73,-2.51,9.86,4.33,1.56,0.44,3.07,8.66,-9.84,-6.75,0
-0.3,2.02,0.32,6.56,5.52,18.23,0.73,-0.53,2.13,-0.07,7.91,9.21,0.36,2.54,2.62,10.12,7.73,9.85,0
1.35,0.82,1.07,2.16,19.68,-21.81,1.78,-0.08,2.28,0.42,1.07,73.66,-0.39,0.74,1.87,13.54,-3.5,34.76,0
-1.05,1.27,0.62,22.18,-5.71,-32.55,1.48,0.22,-0.12,-0.56,24.02,-60.13,-0.24,-1.66,0.67,-7.46,-14.73,13.76,0
-0.3,0.82,-0.88,10.46,8.45,-1.79,-0.17,-0.23,-0.12,-68.92,344.82,-1038.15,0.96,-0.91,0.22,-402.96,-78.69,-444.25,0
-0.45,0.37,-0.28,-0.28,1.62,2.61,0.73,-0.53,-0.57,-5.44,-4.3,-3.97,-0.09,0.44,0.07,1.82,-4.47,-9.19,0
-1.35,-0.08,-0.28,0.7,8.45,10.42,-0.47,0.22,0.63,-8.86,5.46,-22.04,-0.84,-0.31,0.52,-5.01,-3.98,-4.31,0
0.6,-0.23,-0.88,4.12,9.43,3.58,-0.92,0.22,-0.57,6.27,-4.3,7.26,-0.69,-0.61,-0.08,2.31,-4.96,-8.21,0
1.8,-0.23,-0.58,6.56,-1.8,7.49,-0.47,-0.98,0.63,15.06,-4.3,5.3,-0.09,-0.76,0.52,1.82,4.32,2.53,0
0,1.12,0.02,-4.67,-0.83,-5.21,0.43,1.12,-0.72,-3.98,-11.63,-4.46,-0.09,-0.01,0.07,0.84,13.59,4.97,0
0.45,0.37,-0.28,-12,-2.29,-0.81,-0.92,0.22,0.63,6.27,-2.84,-8.86,0.66,0.44,0.82,0.84,0.9,5.46,0
0.75,0.37,0.77,-6.63,0.64,2.61,-0.92,0.52,0.93,6.76,-4.79,8.23,-0.99,0.59,-0.08,-8.92,-1.54,3.51,0
0.75,-0.53,0.47,5.58,5.03,-1.79,-0.47,0.52,0.93,-0.56,4.98,-10.81,-0.69,0.89,-0.83,-9.9,-3.98,-0.89,0
-0.3,-0.23,0.32,-5.65,5.52,9.93,-0.17,0.22,-0.57,-9.84,-6.25,-2.51,-0.99,-0.16,-0.38,4.75,-5.45,-14.56,0
-0.3,1.27,0.32,-9.56,5.52,2.61,-1.07,1.57,-0.72,4.81,-0.4,17.02,-0.69,-0.91,-0.08,-1.6,2.36,1.55,0
-0.3,0.07,-0.88,-10.04,3.57,-2.28,-0.32,-1.13,-0.42,1.88,3.02,-2.51,0.66,-1.51,0.52,6.7,-0.08,10.34,0
0.15,-0.23,-0.13,-7.6,-3.27,7.98,1.78,-0.83,-0.42,8.72,7.42,-10.81,0.51,-0.61,0.67,5.24,-3.98,2.04,0
0,1.12,1.67,9.98,6.99,7.98,-0.17,-0.23,-0.12,-5.44,-3.81,-3.49,-0.39,-0.01,0.07,0.84,-2.03,-1.38,0
2.25,-0.68,-0.58,2.65,7.48,4.07,0.43,-0.38,-0.42,2.37,3.51,-11.3,0.36,-0.01,1.57,5.73,3.83,0.58,0
0.6,-0.23,0.32,4.12,-10.59,-3.74,0.73,-1.28,-1.77,-7.89,4.98,4.81,0.96,-0.61,0.22,0.36,16.04,9.37,0
1.65,1.42,0.02,-1.74,7.48,9.93,-1.07,0.37,0.78,-1.05,-3.81,2.37,0.21,0.89,-0.08,11.1,5.29,-1.38,0
0.45,0.37,-0.73,2.16,3.08,-9.11,0.13,-0.38,0.33,8.72,7.42,-14.23,-0.39,-1.06,0.82,1.82,10.18,13.27,0
1.2,-1.28,-0.28,-7.11,10.41,20.19,0.13,0.67,0.78,6.76,8.88,-4.46,-0.69,1.64,-0.08,20.86,2.36,-6.26,0
0.75,-0.53,0.02,-3.21,10.41,-3.25,1.33,1.12,0.33,3.34,5.46,0.91,-0.69,0.14,0.22,5.73,9.2,-13.58,0
0.15,-0.68,-0.88,12.91,-3.75,3.1,-0.17,0.22,-0.12,10.18,-6.25,15.56,0.51,-0.16,-0.38,0.36,6.27,2.04,0
-0.3,0.52,-0.58,2.16,-2.29,-4.72,0.73,-0.53,0.63,-1.05,2.53,10.67,0.51,-1.21,0.67,8.66,-5.45,9.37,0
0,-0.83,0.77,3.14,0.64,5.54,0.13,-0.83,0.33,3.34,-0.88,9.7,-0.39,-1.06,-0.68,11.1,-3.5,0.58,0
-0.3,-1.43,0.32,2.65,-5.22,2.61,0.73,-0.53,0.93,8.23,0.09,-0.07,0.51,-0.16,-0.38,-2.57,-5.94,5.95,0
0.15,0.07,-0.58,7.05,8.45,-7.65,0.28,-0.98,0.93,5.3,2.53,6.28,-0.39,-0.76,-0.68,-1.6,2.85,-1.87,0
0.15,0.52,-0.88,4.6,-4.24,-1.79,0.28,-0.53,-0.87,6.76,-9.18,-3.49,-0.69,0.59,-0.83,0.36,-1.05,2.04,0
1.65,0.23,0.6,7.74,-0.33,8.54,-0.66,-0.71,-0.83,-7.61,6.17,12.72,0.55,0.53,0.81,-5.68,-8.63,13.48,0
0.15,-0.82,0.45,-9.35,-1.79,1.71,-0.66,-0.26,-0.53,-4.19,-2.13,15.65,-0.05,-0.82,0.66,-0.8,8.46,2.25,0
0.45,-0.67,-0.15,-3.49,-2.28,6.59,0.99,0.79,-0.53,-6.14,-5.55,13.21,1,0.83,1.56,-3.24,-4.23,8.11,0
1.05,-0.07,-0.45,10.18,5.04,-4.15,-0.81,0.64,0.82,-1.75,13,-6.32,-0.35,-0.37,-1.14,5.55,2.11,11.53,0
-0.9,-0.67,0.6,7.74,3.58,5.62,0.39,-0.11,0.07,4.11,1.28,3.93,-0.65,0.08,0.06,12.38,-3.26,0.3,0
-0.45,0.23,0.15,-4.96,-5.21,12.45,-0.06,0.64,0.07,-10.54,5.68,-3.39,-0.8,-0.07,-0.84,-0.8,-7.65,2.74,0
0.6,-0.37,0.75,2.37,7,9.52,-0.06,-0.11,-0.23,-3.21,-5.06,0.02,-0.8,-1.57,-1.14,6.52,-7.16,-3.12,0
1.05,0.68,0,7.25,4.07,5.13,-0.66,-0.26,0.22,1.67,-9.46,-5.84,-0.35,-1.57,0.66,17.27,-1.79,15.43,0
-1.5,0.38,0,3.34,-6.19,15.87,0.84,-0.41,1.27,3.13,-1.65,0.02,-0.95,-0.22,-0.24,-2.75,16.27,10.06,0
0.75,0.98,0.6,-99.19,-10.58,29.54,1.14,0.64,0.82,122.76,-73.91,-226.54,-0.35,-0.07,0.66,-108.22,5.04,2.25,0
0.45,-0.97,0.6,2.86,5.04,-6.1,0.84,-0.41,-0.68,-10.54,6.17,16.14,0.55,0.53,1.56,27.52,-16.44,57.43,0
0.75,-0.22,0.6,-11.3,15.79,8.06,0.24,0.49,1.42,-11.51,10.07,-2.91,1.15,0.38,1.71,-12.03,-9.6,-5.07,0
-0.45,-0.67,0.9,0.42,16.76,-5.62,0.99,0.49,-0.83,2.16,11.05,8.81,0.55,-0.97,1.26,-7.15,3.09,-4.1,0
0.45,-0.67,0.9,10.18,8.46,-21.73,-0.96,0.49,0.22,-4.19,20.82,0.02,-0.05,0.68,2.46,4.57,-2.77,13.48,0
-0.9,-0.22,0.15,4.81,18.72,-15.38,0.24,-0.26,0.67,-0.28,16.42,6.37,-0.05,-0.37,1.41,10.43,0.16,0.3,0
-0.6,-1.57,-0.75,3.34,6.02,-3.66,0.84,1.09,-0.23,-8.58,11.54,-0.95,0.7,-0.07,2.16,7.5,-1.79,-12.4,0
0.6,-0.37,0.45,-9.35,7,-6.1,-0.21,0.49,1.87,-8.1,25.21,-23.9,1,0.83,1.26,-9.59,-5.21,0.79,0
1.2,-0.22,-0.6,-7.4,5.04,43.21,0.24,0.04,1.42,9.48,16.91,12.23,1.6,1.73,1.71,0.18,2.11,8.11,0
0,0.23,0.15,-3.98,9.44,9.52,0.54,0.49,1.12,8.51,22.28,8.33,2.2,-0.67,2.31,15.8,-2.77,11.04,0
1.05,-0.37,0,-10.82,27.02,-2.2,1.89,-0.26,0.22,-6.63,18.37,26.39,0.25,-1.27,2.76,-39.38,-6.67,27.64,0
-0.6,-0.82,-1.2,8.23,18.72,69.09,1.44,-0.71,0.67,0.69,3.24,60.08,1,0.08,2.31,-27.66,39.22,67.19,0
1.2,-0.22,1.35,-113.84,13.34,-157.47,0.99,0.04,-0.53,49.52,-25.08,-72.73,-0.2,1.28,0.51,192.56,9.44,167.78,0
0.75,-0.67,0.6,-27.42,3.09,46.14,0.39,0.64,0.82,-8.58,7.63,1.98,-0.8,-0.07,1.11,-8.61,8.95,-11.91,0
-0.3,-0.07,-1.2,1.39,-3.75,6.1,0.84,0.34,1.27,-9.07,4.21,-16.09,0.55,-0.67,0.06,6.04,4.56,-20.21,0
1.05,-0.82,0.45,-3.49,-14.49,-0.73,-0.21,-0.71,-0.53,-5.17,-6.53,-39.53,-1.55,-0.07,-1.14,-3.24,1.14,3.23,0
1.65,-0.67,0.9,3.34,7.97,-4.15,0.24,-0.26,0.67,1.18,-0.67,-2.42,-0.2,0.08,0.06,0.18,1.63,1.76,0
1.2,-1.42,0.6,6.76,0.65,-1.22,-0.21,0.49,0.67,2.65,1.28,-1.44,-0.05,0.68,-0.39,10.43,0.16,-5.56,0
0.75,0.23,0.6,7.25,5.53,4.15,-0.21,-1.01,-1.28,5.58,1.28,0.02,-1.25,0.68,-1.14,0.18,1.63,-6.05,0
0.45,-0.22,0.15,-2.03,4.07,-0.73,0.39,-0.11,0.07,-8.1,-10.92,0.02,1,0.08,-0.24,-1.29,-6.67,-5.56,0
0,-0.67,-1.05,-4.47,-1.79,23.68,-0.06,-1.91,0.07,7.04,-0.18,3.44,0.7,-0.37,-0.39,11.89,7,-1.17,0
0,0.53,1.8,-3,7,43.7,0.24,0.04,0.22,6.55,-5.06,-15.6,-0.05,0.98,-0.09,7.01,-3.75,-14.84,0
-0.45,0.23,0.9,13.11,15.3,23.19,0.84,-0.86,0.82,-4.68,10.07,23.95,-0.2,-1.27,-1.74,5.06,-1.79,-10.44,0
0,-1.42,-0.6,0.42,9.44,-8.54,0.24,-0.71,-0.08,7.53,-6.53,-7.79,-0.8,-0.82,-0.09,-2.27,7.49,0.79,0
-0.9,0.23,-0.15,5.3,-6.19,2.69,0.24,-0.26,-0.53,3.62,-4.58,5.4,-0.35,-0.07,-0.39,7.5,-8.63,-7.03,0
0,-1.42,0.15,5.3,-12.05,9.52,1.44,-0.26,0.67,1.67,-3.11,3.93,0.25,-0.97,0.51,-3.73,-4.23,-13.86,0
-0.3,0.68,-0.75,11.65,-2.77,4.64,0.39,0.64,-0.68,-4.68,6.17,3.93,-0.95,-0.22,0.06,-6.17,3.58,2.25,0
1.05,-0.37,0.75,-10.33,1.14,-7.57,0.99,0.49,-0.53,9.97,4.21,1,-0.05,0.98,-0.09,-4.71,-3.26,-5.07,0
-1.05,-0.37,1.5,12.13,7.49,10.5,0.39,-0.41,-0.68,-10.54,-2.62,-1.93,0.55,-0.67,-1.29,0.66,8.46,9.09,0
0.75,-0.97,-0.6,0.9,-8.63,7.57,-0.21,0.04,-0.53,-6.14,-9.95,9.79,-0.65,-0.67,1.26,2.62,-9.6,4.69,0
0.75,-0.67,-0.15,-21.56,7,4.15,-0.36,-0.41,-1.43,14.37,1.77,-7.79,0.55,0.53,-0.54,-4.71,-7.16,2.74,0
-0.6,-0.37,0.45,12.62,-2.77,0.24,0.54,-0.26,1.12,8.51,7.63,-1.93,-0.65,-1.72,0.06,-3.73,-5.21,4.2,0
0,0.23,-0.15,4.81,18.23,-10.5,-0.66,-0.26,-0.53,0.21,-2.13,26.88,-0.05,-0.37,-0.39,-4.22,-7.16,-0.68,0
-1.05,0.38,0.45,9.69,-4.72,-14.4,1.14,1.09,-0.68,11.92,-9.95,-5.35,1.15,-0.07,-0.09,1.15,3.58,-14.35,0
0.15,0.68,-0.45,4.81,7.97,0.73,0.24,0.04,1.87,4.6,10.56,-0.95,0.4,-0.37,-0.39,0.18,-4.72,-2.14,0
-0.45,-0.22,-1.05,-9.84,-4.72,10.5,0.24,-0.26,-0.08,-3.21,2.26,2.95,-0.35,0.38,-0.09,-15.94,-8.63,0.3,0
0.15,-0.07,-1.2,2.86,3.09,5.62,-0.81,-0.11,1.57,-7.61,-4.09,-0.95,-0.95,-0.67,-0.54,6.04,-0.33,5.18,0
-0.45,0.98,-0.6,8.23,-9.6,1.22,-0.21,0.79,-0.53,6.06,-6.53,3.93,0.25,-0.67,-0.99,7.01,-7.16,1.76,0
0.75,-0.97,0.9,14.58,-2.28,3.17,-0.21,-0.26,-0.08,-1.26,-1.16,-6.32,0.55,-1.27,-0.99,-1.78,1.14,1.27,0
0.15,1.13,0,1.88,7.49,4.15,-0.21,-0.71,0.22,-12.98,7.63,11.25,-0.65,0.83,0.06,-0.31,6.51,7.62,0
0.6,-0.07,-0.45,-1.05,-7.16,8.54,-0.06,-0.86,0.07,-3.7,12.03,-10.72,-0.65,0.08,-0.24,-8.61,0.16,8.6,0
1,0.57,-0.14,11.51,-0.22,-23.1,-0.32,-0.28,-0.18,-1.54,5.72,12.16,-1.43,0.55,-0.43,-4.6,-5.93,9.31,0
0.4,-0.03,-1.49,8.1,-5.6,-47.02,0.13,0.02,0.12,-0.57,-1.61,38.53,-0.68,-0.65,-0.13,-10.95,-14.72,-10.22,0
-0.05,1.17,-0.74,-1.18,6.12,-7.96,-0.32,-0.73,0.57,-7.89,8.16,-40.09,-0.08,-0.8,0.02,-25.11,7.25,60.09,0
0.55,0.12,0.61,6.14,1.73,9.13,0.73,-0.13,0.42,-1.54,0.35,21.92,-0.23,-0.2,0.17,-2.65,-9.84,-10.71,0
1,0.12,0.31,4.68,-8.53,-11.86,-0.92,-0.43,-0.03,0.9,-6,-22.51,-0.23,0.85,-0.13,6.63,5.3,13.21,0
1.6,0.42,0.01,4.19,12.47,2.3,0.43,1.22,0.57,1.87,0.35,-26.9,-0.23,-0.95,-1.18,3.7,-16.19,-17.55,0
-0.95,0.42,1.21,-6.06,-11.46,15.48,0.13,0.47,-0.18,-12.77,5.23,0.44,1.27,-0.2,0.62,15.42,-2.03,-15.6,0
-0.05,0.42,-0.29,4.19,8.56,6.69,-0.47,-0.13,0.42,-1.05,2.79,-0.54,-0.38,-0.05,0.47,2.23,3.34,6.38,0
1,1.32,0.31,-3.62,3.19,-29.93,0.73,-0.13,-0.33,-2.52,19.39,-56.69,-0.38,-0.8,-1.03,-5.58,13.6,20.54,0
-0.05,0.42,-0.74,17.86,13.94,64.31,0.13,-0.28,-0.18,5.29,-16.25,138.13,-0.08,-0.8,0.47,20.3,-13.75,-103,0
0.55,0.12,0.31,-1.18,3.19,-22.61,0.43,-1.03,-0.63,43.38,-0.63,-170.46,0.52,0.85,-0.13,16.39,12.13,28.35,0
1.3,0.12,0.31,-7.53,6.61,14.99,0.28,-1.18,-0.33,0.9,0.83,7.76,-0.68,-2,-0.43,-5.09,-5.93,-7.78,0
0.7,-0.48,0.01,-5.09,18.82,36.47,-0.17,0.32,-0.03,39.47,-41.16,102.98,-1.28,-0.35,-1.03,-41.71,-34.74,-146.94,0
0.1,0.57,1.06,5.65,16.38,-4.54,-1.67,0.32,-2.28,6.27,6.69,19.97,-0.38,0.4,0.47,-30.97,-2.51,10.77,0
2.2,2.07,1.36,5.65,14.91,32.57,0.73,-0.13,0.72,-10.82,22.32,14.11,-0.23,0.1,1.37,0.28,1.39,7.84,0
2.2,0.12,1.36,1.75,36.88,4.74,3.58,-1.18,2.22,-5.94,15.48,32.67,1.27,1.3,2.87,19.32,-7.4,3.94,0
0.55,0.57,0.61,66.69,25.65,33.06,2.68,-0.13,3.87,-13.75,16.46,-62.06,0.22,-0.95,2.12,-4.12,-7.89,90.85,0
0.4,-0.03,1.66,283.97,-190.17,73.58,0.73,0.62,-0.03,-8.38,53.08,-466.85,-0.38,-1.85,1.22,-238,164.48,772,0
-1.1,0.57,-0.89,-1.67,-1.2,23.29,-0.32,-1.03,0.57,0.41,2.3,-13.72,-0.38,-0.05,-0.28,2.72,0.42,-11.69,0
-0.5,-0.48,0.01,7.12,3.68,-12.35,1.93,-0.13,-0.03,5.29,0.83,-4.44,-0.38,-0.05,-0.73,12.97,-2.51,-10.71,0
1.15,-0.03,0.46,-0.21,6.61,20.85,0.13,-0.28,-0.93,-2.03,0.35,-28.86,-1.88,-0.65,-0.88,2.72,1.88,-18.04,0
-0.5,-0.03,0.76,1.75,-14.38,-5.52,-0.17,-1.63,-0.33,-0.57,-2.09,0.93,0.67,-0.05,1.52,-5.58,-6.42,-6.81,0
0.55,-0.63,0.61,-10.46,7.1,-26.03,-0.32,-0.73,-0.18,2.36,4.74,-26.42,-0.08,0.4,0.47,-10.46,-2.03,-6.32,0
0.1,0.12,1.81,-4.11,12.96,39.4,-0.17,-1.63,0.42,-4.96,-15.28,80.52,-0.83,-0.35,0.47,12,-6.91,-40.99,0
-0.05,1.47,0.01,7.61,-40.26,-113.92,-0.77,0.02,0.57,-15.21,21.34,87.35,-0.38,0.4,0.02,-42.69,9.2,141.14,0
1,0.12,-1.34,-12.9,0.26,2.78,-1.07,0.02,-0.18,-14.24,3.76,-6.4,-0.68,0.55,0.17,-1.19,-21.56,3.45,0
-0.65,0.57,0.31,-3.62,-5.6,9.62,0.13,-0.73,0.12,-3.01,3.28,-2,-0.08,-0.05,-0.28,3.21,-3.49,1.49,0
0.55,-0.63,-0.59,-5.09,-0.22,19.39,-0.17,0.62,-0.03,-10.82,-1.61,-2.98,0.52,-0.95,-0.43,2.72,-4.47,-2.9,0
0.4,-0.48,-0.29,8.58,-4.13,-13.82,-0.77,0.47,-0.18,1.39,-12.84,36.57,0.97,1.6,1.67,-8.02,5.3,23.47,0
-0.65,0.12,1.06,-5.58,6.12,-3.08,0.28,0.32,0.42,-13.75,15,-56.69,-1.58,1,0.47,-4.12,7.25,7.84,0
-0.5,-0.48,-0.29,6.14,12.96,73.58,0.13,0.47,-0.93,6.27,-16.25,17.53,0.52,0.1,-0.13,40.32,-19.6,-103,0
-0.35,0.12,-0.89,3.7,-6.08,-22.12,0.43,-0.28,-0.18,-3.98,0.83,17.53,-0.08,-0.8,-1.03,-2.65,-1.05,-17.06,0
-0.5,0.72,0.01,5.17,10.03,16.94,1.03,1.07,-0.33,-9.36,-8.93,-7.37,-0.23,-0.2,0.92,2.72,-0.56,1.01,0
-0.05,-0.48,0.76,6.63,3.19,-11.38,-0.92,-0.43,0.42,-7.4,3.28,28.27,0.37,0.4,0.02,-4.12,-2.03,-3.88,0
-1.1,-0.63,-0.14,-12.9,-15.36,-16.75,0.13,0.02,-0.63,-11.31,-2.09,-18.12,0.97,0.85,0.62,2.23,-1.54,2.96,0
1,-0.63,-0.89,2.24,6.61,21.34,-0.17,0.32,0.72,5.29,7.67,-34.72,0.52,0.1,-0.43,0.77,7.74,-6.81,0
0.1,0.57,-0.59,0.28,-6.57,30.13,-0.47,-0.88,1.47,10.66,-0.63,17.04,-0.68,0.1,-0.43,-12.42,-0.56,9.31,0
0.1,0.12,0.31,4.68,-5.11,-0.63,0.43,0.47,0.12,-7.89,1.81,-18.6,1.27,0.55,-0.13,17.86,11.16,-19.5,0
0.55,0.57,-0.59,-9.97,4.66,-3.08,0.88,0.47,-0.63,-9.84,6.21,2.88,0.67,0.4,-0.28,4.18,2.86,3.94,0
0.1,-0.63,0.61,2.24,-1.2,-6.01,1.33,0.47,0.12,-1.05,3.28,0.93,-0.38,-0.05,0.47,-6.56,15.06,1.01,0
-0.5,1.17,0.01,8.58,-10.48,-3.56,-0.92,-0.43,-0.03,4.8,8.16,15.09,0.52,-0.2,-0.43,6.63,1.88,-0.46,0
-0.5,-0.03,-0.29,1.26,4.66,7.18,-1.67,-0.88,-0.03,-6.43,-4.54,-2.98,0.97,0.55,-0.88,-8.02,-4.96,-6.32,0
0.1,0.57,-0.59,-5.58,-21.71,0.83,-0.17,0.32,-0.03,4.8,9.14,-8.84,-0.83,1,-1.03,-1.19,-4.96,6.87,0
1.15,1.47,-1.19,7.12,-6.57,6.69,-0.47,-0.43,0.57,6.76,15.97,7.28,-0.23,0.85,0.62,1.25,-14.72,4.91,0
-0.65,-0.63,-0.59,1.26,10.52,4.74,-0.47,1.07,-0.03,1.39,0.83,3.37,0.67,0.4,-0.73,2.72,2.86,8.82,0
-0.35,-0.63,-0.14,3.7,-0.22,-1.61,-0.77,-1.48,-1.38,-2.03,5.72,0.93,0.52,-0.2,-0.43,9.07,8.72,-0.46,0
-1.1,-0.18,-0.14,-5.58,4.17,8.15,0.43,0.02,0.57,-6.91,1.81,-1.03,0.22,0.55,0.17,-4.6,-2.03,19.07,0
-0.5,1.17,0.76,13.47,10.52,5.71,0.13,-0.28,-0.63,0.9,1.81,2.39,0.22,0.1,-0.43,-0.21,10.18,-1.44,0
0.4,0.42,0.46,-8.51,-9.01,6.2,0.73,-0.43,-0.78,0.41,11.58,-8.84,0.52,-1.25,0.62,-5.09,3.34,6.87,0
-0.35,1.32,-0.89,-0.69,2.22,0.34,-1.07,-0.73,-0.18,-4.96,7.18,6.3,-0.83,0.4,0.02,-5.09,-6.91,-2.9,0
0.84,0.05,1.09,4.96,-2.95,-1.79,-0.24,-0.03,0.93,-9.15,1.82,2.61,0.09,0.53,-0.22,-2.61,-2.77,3.61,0
-0.51,0.5,-0.56,6.43,-12.72,-6.67,0.06,0.12,0.78,-7.19,-0.13,-4.23,1.14,0.83,0.08,1.78,-2.77,9.96,0
-0.81,0.5,-0.11,-3.34,3.88,-2.76,-0.24,0.42,0.63,2.57,-7.94,9.44,0.84,-0.22,0.83,-5.54,-6.68,-12.5,0
0.24,0.35,-0.71,4.47,-10.28,-21.32,-0.84,-0.63,-0.72,1.6,1.33,-2.28,-0.36,0.08,-0.97,-8.96,8.46,8.98,0
0.99,-0.85,-1.16,9.84,-1.98,19.21,-1.44,-0.33,-0.12,-3.77,8.17,13.84,1.14,0.08,-0.52,8.13,3.09,0.19,0
0.39,0.05,-0.11,3.98,2.42,-10.09,-0.84,1.17,-0.87,-0.36,-4.53,7,-0.21,-0.37,0.68,1.29,6.02,7.52,0
0.39,0.05,0.34,-12.13,8.28,-7.16,0.36,0.12,0.03,-15,9.63,-14.48,0.39,1.28,-0.52,6.18,10.9,10.44,0
0.39,-0.25,1.09,8.38,12.67,7.98,0.81,0.12,0.33,-18.91,-7.94,1.63,0.39,-0.22,0.08,9.59,1.13,0.68,0
1.14,0.5,0.64,-4.32,15.11,-49.64,0.66,-0.03,-0.57,-33.07,23.31,15.3,-0.36,-0.67,0.08,38.89,-3.75,4.1,0
1.89,0.65,0.79,3.5,21.46,28.97,-0.54,0.42,0.63,3.55,4.75,8.95,1.14,-0.97,1.58,8.62,5.04,-21.78,0
0.24,1.4,0.49,-8.22,-0.02,4.07,2.61,0.72,0.93,-4.75,13.05,14.33,1.44,0.38,2.48,21.8,-28.65,-38.38,0
0.24,-0.1,-0.26,2.03,5.35,15.3,1.86,1.17,2.43,-3.77,7.19,16.28,1.14,-0.67,1.28,4.22,-1.8,12.89,0
0.24,3.35,0.79,-4.32,24.88,-1.79,1.41,1.47,0.63,-1.82,10.61,0.17,0.84,0.08,1.58,3.74,6.5,7.03,0
-1.71,0.8,0.64,-4.32,18.04,-5.21,0.36,1.32,1.53,2.57,13.54,6.03,-0.21,0.68,1.73,5.2,5.53,0.68,0
0.84,-0.25,-0.11,-12.13,10.23,7,1.41,0.42,-0.12,-11.59,16.96,8.95,-0.36,-0.97,0.08,0.32,6.99,14.84,0
-0.51,0.05,1.09,2.03,6.32,8.47,2.61,1.17,1.68,-19.4,23.31,20.19,1.59,-0.22,2.78,9.11,-4.24,-3.72,0
-0.81,0.5,-0.86,7.4,14.14,12.37,1.26,0.87,3.48,-9.63,-0.13,4.07,-0.81,1.28,0.83,15.94,-3.26,3.61,0
-1.11,0.35,0.04,2.52,18.53,5.05,0.06,-1.38,2.28,-0.36,8.66,19.7,0.09,-0.67,1.58,12.52,-8.14,-6.65,0
-1.11,0.35,0.49,-18.48,35.62,50.46,1.71,-0.18,2.28,-7.19,16.47,17.26,1.14,0.83,2.78,3.74,1.62,25.58,0
-0.66,0.35,-0.26,-8.22,13.16,47.53,2.91,-0.63,1.98,5.99,7.68,89.03,0.54,0.38,1.73,-21.66,-4.73,29.49,0
-0.06,0.8,-0.86,-36.54,5.83,-119.95,-1.14,0.57,0.78,34.8,-68.49,-48.17,-1.11,-0.22,0.83,45.73,4.06,56.83,0
-0.51,-0.25,1.84,-8.22,2.42,11.4,-1.44,0.42,0.63,-2.8,-0.13,10.42,0.24,-0.37,0.68,-13.35,-2.29,-3.23,0
1.14,0.5,-0.11,-1.39,-12.23,12.37,0.36,0.12,-0.72,8.92,-5.5,0.17,-0.21,-1.12,-0.37,-1.64,-5.7,-3.23,0
0.24,-0.1,0.79,-2.36,5.35,0.17,-0.54,-0.03,-0.87,-2.31,-12.83,-12.04,-0.81,0.08,-0.97,3.74,-2.29,-2.25,0
0.24,0.35,0.49,0.57,-3.93,4.56,-0.24,-0.03,-0.57,-13.05,-1.11,-0.32,-0.81,0.83,0.08,-6.03,5.04,1.17,0
0.39,-0.25,1.09,-8.22,-2.95,-11.06,-0.99,0.42,1.38,6.48,-3.55,12.86,-0.51,0.98,0.38,-5.05,-0.82,-2.25,0
-1.71,0.05,1.09,-3.83,-10.77,3.58,0.06,-0.63,0.03,5.99,-5.01,4.56,0.09,-0.22,-0.52,5.2,4.55,-2.74,0
-0.21,-0.1,-0.26,4.96,-13.21,-13.99,0.36,-0.18,0.78,-11.59,2.8,2.61,-0.36,0.83,-0.52,-2.61,4.55,11.91,0
-0.21,-0.55,0.04,-5.78,-6.86,3.58,-0.84,-0.18,0.33,0.13,10.12,-1.79,0.54,0.98,0.38,12.52,4.06,1.66,0
0.54,-0.1,1.24,2.03,13.16,24.58,-0.84,0.12,0.33,-8.66,-2.08,11.88,0.24,0.98,-0.07,15.45,1.13,-31.06,0
0.54,-0.85,-0.26,3.98,11.21,8.47,-0.24,-0.03,0.18,10.87,-9.9,-44.27,0.54,-0.07,-0.07,-9.45,1.62,0.68,0
-1.26,0.5,-0.56,-4.8,-5.4,-4.23,0.36,-0.63,-1.47,-3.77,1.33,-5.69,0.09,-0.22,0.53,1.29,-3.75,-4.2,0
-0.81,0.8,-0.86,-7.73,-8.33,6.51,-2.04,0.57,-1.17,6.48,-2.57,-9.11,0.09,0.83,-0.22,3.25,9.92,13.37,0
0.39,-0.25,-0.86,-6.76,-1.98,4.56,-0.84,0.57,0.78,3.06,-5.01,-1.3,-0.36,-0.22,0.53,-1.64,-6.19,0.68,0
-0.51,0.05,-0.86,-6.76,2.42,12.86,-0.54,0.42,0.63,-3.77,3.29,-6.18,0.54,-0.82,1.43,-3.1,13.83,1.17,0
0.24,0.35,0.04,2.03,2.91,-1.79,0.21,-0.03,0.63,-10.61,-3.55,-3.74,-1.56,-0.97,-0.52,2.76,-3.26,5.07,0
-0.21,-1.3,0.49,12.29,4.37,-7.65,-0.84,-0.63,0.78,12.34,12.56,-9.11,0.24,-0.37,-0.07,-1.15,-4.24,6.05,0
-0.51,0.5,0.34,1.05,-2.47,0.17,0.36,-0.93,0.03,16.25,-9.41,7,0.54,-0.37,0.68,2.27,6.02,4.1,0
-0.21,-0.55,0.49,5.45,-0.02,2.12,-0.39,2.07,0.03,3.06,0.84,-5.21,-0.51,-1.12,0.38,-6.03,11.39,-4.69,0
0.24,-0.85,-0.71,0.57,-2.47,-4.23,-0.54,-0.33,-0.57,3.55,-1.6,-23.76,0.99,-0.07,-0.07,-7.5,-7.66,2.14,0
-1.56,-0.1,0.49,-0.9,-2.47,-2.76,-0.39,0.12,-0.42,-4.75,-0.62,-5.21,-0.51,-0.07,0.38,3.74,-0.33,7.03,0
-0.21,-0.55,-0.26,-1.39,-7.35,-5.21,0.06,0.87,-0.72,-17.45,6.22,24.09,-0.21,0.68,0.38,-1.64,10.41,-5.67,0
-0.06,-0.7,-0.56,4.47,-3.44,-2.76,-0.39,-0.18,0.33,-11.59,-4.04,-2.28,0.54,0.38,-0.37,4.22,5.53,-17.88,0
0.24,-0.1,-0.26,-7.25,3.39,7.49,-0.39,0.87,0.33,-1.33,3.77,1.14,-0.51,0.38,0.38,2.76,9.43,-6.65,0
-0.06,0.5,0.34,-8.22,2.42,7.98,0.06,0.87,-0.42,-8.17,-0.13,-3.25,-0.81,-0.22,-0.52,0.81,6.02,-0.3,0
-1.56,-1.3,-0.26,11.31,-6.37,7.98,-0.84,-0.63,-0.72,13.8,7.19,2.61,0.24,-1.57,-0.82,3.74,0.64,-4.2,0
0.24,0.35,0.49,-7.25,6.81,4.07,-0.99,0.72,-0.57,-7.19,8.17,3.58,-0.81,-0.67,-0.22,5.2,3.09,9.47,0
-1.56,0.65,-0.26,-9.2,5.35,9.93,-0.39,0.12,0.03,-5.24,0.36,1.14,0.39,0.53,0.53,-1.15,-1.31,-12.02,0
0.84,-0.25,0.34,0.57,5.35,-5.69,-0.39,-0.63,-0.72,-7.19,2.31,-2.28,0.99,-0.37,-0.37,-8.47,13.34,10.93,0
-0.51,0.05,1.09,-7.73,3.88,-5.21,-0.39,0.57,0.03,3.06,-5.01,-14.48,0.24,0.68,0.38,-6.03,7.97,9.47,0
-1.47,0.64,0.08,0.95,-2.19,14.06,0.86,0.64,-0.22,2.03,-6.14,1.84,0.35,0.52,1.2,-4.21,-1.75,-18.54,0
0.03,0.04,-0.52,9.74,18.8,4.3,0.56,-1.01,-0.82,15.21,5.09,-17.7,0.35,-0.98,0.45,5.55,11.92,-4.38,0
0.03,0.04,0.68,-6.87,7.08,54.59,-0.79,0.64,-0.67,-6.76,10.46,-11.35,-0.85,0.52,0.75,-2.26,3.62,11.24,0
-0.12,-0.86,-0.22,-14.19,5.13,-7.91,-0.19,-0.26,1.13,4.96,-6.14,16,-0.1,-0.23,-0.3,-35.46,-13.47,8.31,0
0.03,1.69,-1.27,-0.03,3.18,-49.41,-0.34,0.64,0.53,-7.25,9.98,6.23,0.5,-0.08,-1.2,-16.42,-1.75,24.91,0
0.48,-1.46,-0.07,-20.05,-4.15,-5.47,-0.34,-0.11,0.83,-3.34,-2.72,14.53,-0.7,-1.13,-0.45,17.76,-19.33,-16.1,0
0.93,0.04,0.68,4.37,3.18,28.22,0.41,0.34,0.08,-2.36,-8.58,20.88,-0.4,1.12,-1.5,14.83,4.11,-11.71,0
1.68,0.04,0.38,7.78,11.48,0.39,0.56,-1.01,-0.52,7.4,2.16,15.02,0.35,-0.23,-1.05,3.6,2.16,4.89,0
0.48,-1.01,-1.72,-10.77,4.16,18.46,1.16,-0.11,0.53,8.87,-0.77,-11.84,-0.1,-0.68,0,12.39,-4.68,-27.33,0
-0.42,0.79,-2.02,-15.17,3.18,152.25,0.26,-0.26,-0.07,1.05,-0.28,-3.05,1.55,0.52,-1.05,25.08,-7.61,-72.26,0
-0.72,-0.26,-0.52,-25.42,3.18,-127.54,1.16,-0.86,0.83,42.56,-31.53,-53.83,0.95,-0.53,-1.2,-79.41,31.94,184.09,0
-1.02,0.64,0.08,7.78,0.25,5.76,0.86,0.34,-0.97,8.87,4.12,27.23,0.2,-0.08,-0.45,6.04,-3.7,-29.29,0
-1.02,0.34,0.83,-4.91,6.11,40.92,0.41,-0.11,-0.97,3.01,-13.95,39.43,-0.25,-0.08,-0.9,12.39,-5.17,-28.8,0
-1.17,0.04,-1.72,13.15,10.01,-25.98,-1.54,0.34,-1.42,14.24,3.14,23.81,0.2,0.67,0.15,-34,51.47,386.24,0
-2.22,1.09,-0.67,15.6,32.48,21.87,1.46,-0.26,1.43,2.03,17.3,36.5,-0.25,0.67,2.1,18.25,-18.35,0.01,0
-1.77,1.39,-0.67,12.67,18.32,66.8,2.06,1.39,1.58,0.57,17.3,14.53,0.5,1.72,2.85,5.06,0.21,26.38,0
1.23,0.49,-0.82,-4.42,-17.33,-35.25,3.86,-0.71,3.38,4.47,10.46,115.61,0.95,0.22,2.4,-48.16,-12,83.02,0
-0.57,0.64,0.08,-153.84,558.35,-1546.48,1.01,-1.01,2.63,78.2,339.57,-493.77,0.35,0.07,2.55,-450.5,241.9,1072.21,0
0.03,-1.01,0.38,4.85,5.13,-12.3,-0.19,1.24,0.23,-4.32,5.58,-2.07,-0.1,-0.23,0.45,5.06,-2.24,-0.48,0
-1.02,-0.11,0.08,4.85,2.2,4.79,0.86,-0.11,-0.22,-8.71,0.21,4.77,-0.1,-0.98,1.5,-12.03,0.69,2.45,0
-0.57,-1.31,0.08,12.67,-9.52,-25.49,-1.24,-1.61,0.08,5.94,15.35,4.77,-0.25,-0.08,-0.45,-17.89,12.9,19.05,0
-0.42,1.24,-0.52,-2.96,-6.1,16.02,2.06,-0.41,-0.22,-4.32,16.32,1.35,1.1,0.82,0,3.11,-0.77,8.31,0
0.33,-0.56,-1.12,-8.33,1.71,-9.86,-0.34,0.34,-1.42,2.52,-6.14,6.72,-0.25,0.22,-0.15,-4.21,-4.19,13.19,0
-1.17,-0.71,0.68,-0.52,-6.1,6.25,-0.04,-1.16,-1.42,-6.76,0.21,3.79,0.2,-0.08,-0.15,-3.24,0.69,-9.27,0
-0.42,0.04,-1.27,-11.75,-1.7,97.56,1.01,-1.46,0.68,-3.83,4.6,17.46,0.5,1.42,-0.15,46.57,-13.47,-74.21,0
-0.12,-0.11,0.53,13.15,7.08,15.53,0.56,0.04,0.68,1.05,18.28,-13.79,0.5,0.67,0.6,-3.24,11.44,15.63,0
0.33,0.34,0.08,-9.79,1.23,-9.86,-0.34,-1.16,-0.22,-4.8,9,10.63,-0.4,-0.68,0,-2.75,7.04,8.31,0
0.48,-1.46,-1.27,-3.45,-9.03,16.02,-0.19,0.04,0.23,4.47,-8.09,13.07,0.5,0.67,0.6,0.18,-3.21,-2.43,0
-1.77,-0.86,-0.67,-12.24,7.08,-0.59,1.01,0.04,-0.52,-0.41,4.6,-1.58,-0.25,-0.53,0.9,-4.21,10.46,-0.97,0
0.63,-0.56,0.08,-2.47,6.6,10.64,-0.94,0.04,-1.57,7.89,-12.97,26.74,-0.1,-0.68,-0.3,6.53,-1.75,4.4,0
0.93,-0.26,-0.07,-13.21,-2.19,-12.79,0.41,-0.86,-0.22,10.33,6.07,-31.37,-0.4,0.82,1.2,9.46,10.95,-6.83,0
-0.72,0.04,0.38,10.71,-2.19,30.66,-0.94,-0.26,0.68,8.38,2.16,-27.46,0.95,-0.53,-0.45,6.04,-10.05,-13.66,0
-0.72,-0.71,1.13,2.41,5.62,-4.98,-0.19,0.79,-0.82,8.87,-5.65,-28.44,-0.25,-0.08,-0.9,-4.7,-7.12,8.8,0
-1.77,-0.86,0.08,11.2,7.57,-9.38,-0.64,-0.26,-0.07,3.01,10.46,11.11,-0.25,-0.08,-0.15,-3.24,-2.72,-4.38,0
-0.42,-0.71,0.68,-1.01,-9.03,-19.63,-0.94,0.04,-0.52,-14.57,-2.72,22.83,-0.25,-0.53,-0.9,-13.98,-3.7,9.78,0
-1.17,0.79,-1.27,3.39,0.74,-12.79,0.41,0.34,-0.67,1.05,-2.72,-12.81,0.35,-0.23,-1.05,3.11,6.55,-10.73,0
-1.02,-0.11,-0.22,2.9,-4.15,37.5,0.26,0.49,0.23,20.59,7.53,-5,0.65,-1.43,0,7.5,-12.49,-17.08,0
0.03,0.04,-0.82,4.85,-2.19,-35.25,-0.34,-0.11,0.08,1.54,3.14,23.81,-0.1,-0.23,1.5,-28.14,6.55,38.1,0
-1.17,0.49,-0.07,13.15,-1.7,79.98,-0.19,0.79,-0.82,14.73,23.65,-181.27,0.35,0.82,1.2,-49.62,16.81,94.74,0
0.48,0.49,-0.07,-1.49,-3.66,8.2,0.56,-0.26,0.23,-5.29,-1.74,5.25,0.35,0.82,-0.3,7.99,-4.68,-14.64,0
0.33,-0.86,0.53,-7.35,2.2,-0.1,0.26,-0.71,-0.07,6.91,-3.21,-2.07,-0.4,-0.23,0.45,0.18,10.46,-0.48,0
-0.72,-1.91,1.13,8.27,6.6,-4.49,-1.54,-0.41,-0.67,-3.34,1.67,1.35,-0.1,0.82,0.45,16.29,8.02,-7.31,0
-0.42,-0.26,-0.07,-2.47,6.11,-6.93,-0.64,-0.71,0.23,2.52,-3.7,8.18,0.65,0.82,0,-5.68,3.13,0.01,0
-0.57,1.09,0.08,-15.17,-7.56,1.37,0.86,0.34,0.83,-17.99,11.93,-6.46,-0.85,-0.68,-0.3,7.02,0.69,-6.83,0
-1.02,0.64,-1.12,0.95,-3.17,3.32,0.41,-0.41,0.08,2.52,-7.6,-3.53,0.95,0.22,-0.15,-0.31,-1.75,-8.78,0
-0.42,-0.26,0.68,-5.4,-10.49,-10.35,0.41,-0.11,-0.67,2.03,5.58,-4.51,-0.7,-0.08,-0.45,-3.24,-6.63,7.82,0
-1.17,0.04,-0.82,14.62,1.23,-1.07,-0.94,0.49,1.43,24,-5.65,-10.86,0.35,-0.68,-1.05,2.62,7.53,4.4,0
-0.57,1.09,0.08,8.76,-5.12,-1.07,-0.04,-1.16,-0.22,-12.62,10.95,0.37,-0.1,1.12,-0.3,-4.21,12.41,11.73,0
-0.57,-1.31,0.83,-6.38,-8.05,2.83,-0.94,0.04,0.68,-7.25,-3.7,-2.07,0.95,1.42,-0.45,0.18,-0.28,3.92,0
0.93,0.79,-0.82,-21.03,9.04,2.34,-0.19,0.04,1.13,-4.8,4.12,5.74,0.2,0.22,0.6,4.09,-4.68,-0.48,0
0.11,0.37,0.66,-12.07,12.78,0.21,1.25,-0.24,-0.21,-10.54,-7.26,2.08,0.59,-0.06,0.51,7.24,4.25,8.37,0
-0.49,-0.98,0.06,-3.77,4.48,-3.2,0.8,0.51,0.09,-3.7,0.55,8.43,0.59,0.69,1.56,6.75,0.83,1.53,0
0.86,-0.08,-0.09,-10.12,2.53,-2.71,-1.15,-0.24,-0.96,8.02,-2.87,10.87,1.04,-0.81,0.51,10.66,-3.56,10.32,0
0.56,-0.53,-0.09,-2.3,-5.77,0.7,0.95,0.36,1.14,4.11,2.99,22.1,0.89,-0.66,0.66,-6.43,0.35,-3.35,0
-0.34,0.37,0.66,-6.21,8.88,-0.76,-1.6,0.06,0.09,-1.26,11.78,-8.66,0.29,0.39,-0.99,8.71,11.09,3,0
0.56,-1.28,-1.74,4.04,3.02,11.93,0.2,1.41,0.39,4.11,-3.84,-2.8,-0.91,-0.06,-0.69,10.66,3.28,-11.16,0
0.71,-0.68,-1.59,-1.33,2.04,-5.16,0.35,0.51,0.09,-10.05,4.46,1.11,-1.06,-0.21,-0.84,2.36,-10.4,7.88,0
0.11,-0.08,0.21,-1.33,-3.33,7.54,-1,-0.09,0.69,-5.17,15.2,3.06,-1.66,-0.36,0.51,8.71,-4.05,-4.81,0
1.91,0.07,-0.69,-18.42,11.81,3.14,-1.45,0.66,0.39,10.95,14.22,12.83,0.29,0.99,1.26,8.71,-8.93,-1.4,0
0.56,2.32,0.66,-1.82,11.32,-6.62,0.8,-0.24,0.54,3.13,2.02,38.22,0.44,-0.21,-0.39,7.73,8.65,35.22,0
-0.49,1.27,2.01,13.32,9.85,22.68,2.45,0.81,0.99,-3.7,22.52,2.08,0.59,0.69,1.26,3.33,-3.07,9.83,0
0.26,0.82,0.51,-1.82,0.58,2.66,2.9,-0.24,1.74,-2.72,21.55,2.08,0.89,-0.66,1.41,-1.55,3.28,8.37,0
0.86,-0.53,-0.09,-2.79,3.51,-7.11,1.85,-0.09,1.14,8.99,11.78,5.99,-0.31,0.09,0.96,-3.5,-1.61,-5.79,0
-0.19,0.52,1.26,7.95,7.41,-7.11,0.35,-0.69,0.54,-10.05,4.95,8.92,1.64,0.54,2.46,4.8,-9.42,-3.84,0
0.56,0.67,0.66,-6.21,11.81,-4.18,-0.55,-0.84,0.69,-4.68,5.43,2.08,-0.76,0.54,1.41,-14.24,-3.07,6.9,0
0.26,1.27,1.56,7.46,3.51,-5.16,0.35,0.51,1.74,14.85,17.15,-5.73,0.14,0.84,1.41,3.82,-12.84,-0.91,0
0.71,1.72,0.81,12.34,22.55,-1.25,0.8,0.51,2.79,2.65,15.2,0.62,1.04,1.44,1.26,11.15,0.35,13.74,0
0.56,0.37,-0.54,12.34,2.04,-6.62,0.95,0.36,2.64,-0.28,21.06,-3.77,-1.66,-0.36,2.31,4.8,-7.47,19.11,0
-0.49,0.07,0.51,-1.82,8.39,24.63,0.65,0.36,1.44,0.21,11.78,-4.75,0.44,-0.21,2.91,-9.85,-3.07,-1.4,0
-1.39,-0.68,0.06,33.83,-23.84,-20.78,0.35,-0.99,-0.21,-54.48,55.24,-46.74,-0.46,-0.06,-1.44,5.78,1.32,-59.5,0
-0.19,0.07,0.51,-0.35,14.74,8.52,-1,-1.14,-0.81,8.02,2.99,-14.52,-1.36,-0.36,-0.24,-256.92,34.53,119.7,0
1.91,-0.23,0.06,-0.35,-3.33,-4.18,-1.75,2.16,-0.81,6.06,6.9,-4.75,-2.11,-0.81,-0.99,3.33,5.72,-3.84,0
0.11,-0.08,-0.09,6.48,-10.17,-3.69,-0.55,0.36,-0.06,-7.61,-4.33,10.39,-1.66,-0.06,0.51,-0.08,5.23,0.07,0
-1.24,-0.08,0.96,1.6,-2.84,0.21,0.8,0.51,-0.66,-6.14,6.9,-7.68,0.59,0.39,1.26,4.8,-4.05,-4.33,0
1.31,-0.08,0.66,0.62,7.9,-8.09,-0.4,0.06,0.99,3.13,-0.91,-9.15,0.44,0.09,0.96,0.41,8.65,5.93,0
-0.49,0.52,0.06,-1.33,-6.26,8.03,-0.25,-0.09,-1.11,-2.24,-10.68,9.41,-0.76,-0.96,0.21,-10.83,6.21,5.44,0
0.86,-0.53,-0.54,11.37,-2.35,-10.53,0.35,-0.99,0.99,-10.05,5.92,10.39,-0.76,-0.66,-0.39,-3.99,8.16,10.81,0
0.86,-0.53,0.21,-0.35,0.09,14.38,-0.4,-0.24,-0.21,3.13,0.06,2.57,0.44,0.54,0.66,-5.45,-12.35,0.07,0
0.11,0.37,0.21,-0.35,-0.4,16.33,0.35,-0.24,0.09,3.62,-21.91,16.73,-0.46,0.39,-0.99,7.73,0.35,7.39,0
0.56,-0.08,-0.54,5.51,6.92,4.12,-1.15,-0.24,1.29,-15.91,6.9,-10.61,-0.31,0.84,0.96,25.31,0.35,-11.65,0
-0.94,-1.88,0.06,-11.09,1.55,-7.11,0.2,1.11,-0.81,2.16,-2.38,-7.19,-0.16,-1.11,-0.69,-10.34,-9.91,13.25,0
0.26,0.07,-0.69,-0.84,8.39,2.66,-0.25,0.36,-0.36,-29.09,10.81,10.39,0.14,-0.96,-0.09,-0.08,8.65,10.81,0
1.31,-0.08,0.21,2.58,6.92,-1.74,0.05,-0.24,-0.66,6.55,-4.33,-1.82,-0.31,-0.21,0.21,-0.08,12.07,0.07,0
-0.49,0.07,-0.39,1.11,2.04,-6.13,0.2,-0.09,-0.36,-1.75,-0.42,4.53,-0.31,-0.21,0.66,5.29,-10.88,-14.58,0
-0.94,0.52,0.81,3.07,-1.38,-10.53,0.2,-0.09,0.69,2.65,-4.33,-11.59,-0.31,1.29,0.21,13.1,-2.09,-2.86,0
0.11,-0.08,0.96,1.6,-5.77,-14.43,0.05,-0.24,0.54,4.6,2.99,8.92,-0.46,-0.06,-0.69,1.38,0.83,1.53,0
0.86,-0.83,0.66,-0.35,-10.65,2.17,0.2,-0.09,-1.11,-17.86,-2.87,-0.36,1.19,0.84,-0.84,-1.55,-2.09,-3.84,0
1.46,0.07,0.06,2.09,-12.61,-4.67,0.35,0.51,-0.21,2.16,-3.35,-7.68,-1.36,-0.06,-0.69,3.82,6.21,9.83,0
0.26,0.52,0.81,5.51,-7.24,-8.09,-0.25,-0.84,0.39,11.92,3.97,-14.52,-0.31,-0.66,-0.09,-3.99,6.21,-4.81,0
-0.34,-0.53,0.96,-8.65,1.55,-0.27,0.65,-0.39,0.39,-2.24,-2.87,-2.8,-0.46,-0.81,-0.24,-2.52,4.74,5.93,0
0.11,-0.53,-0.54,1.6,5.46,8.52,0.35,-0.99,-0.21,6.55,-13.12,-6.22,0.44,0.09,-0.39,7.24,3.76,-3.35,0
0.56,-0.53,-0.54,0.62,3.99,-16.39,-0.55,-0.09,0.39,-5.65,-1.89,-1.33,0.59,0.69,-0.24,2.85,5.72,1.53,0
-0.94,0.52,0.06,-6.21,-3.33,-6.13,0.35,0.06,-0.21,-2.72,3.97,11.36,0.59,0.39,-0.99,-4.48,-11.86,3.49,0
0.26,0.07,0.06,8.44,5.46,-7.11,0.05,-0.69,-0.21,1.18,-2.38,-5.24,0.44,0.84,-0.39,8.71,-10.4,5.93,0
-0.19,-1.43,0.81,-2.79,4.48,-6.62,0.2,0.36,-0.36,-6.14,2.99,-0.84,-1.06,-0.21,0.66,-5.94,11.09,-7.74,0
1.16,0.07,0.81,-2.79,10.34,-11.5,0.35,-0.24,0.54,-8.58,10.81,-0.36,-0.31,-0.96,0.66,14.08,-7.95,3,0
0.11,-1.28,-0.09,-1.82,6.92,0.21,0.95,0.36,-0.06,1.18,2.99,-5.24,-0.91,-0.36,-0.24,0.41,-11.37,-7.26,0
-0.49,-0.23,0.81,3.07,14.74,-3.69,-0.55,1.11,-0.06,-0.77,2.99,4.53,-1.66,0.39,0.51,-1.06,-8.93,-5.3,0
0.86,-0.08,-0.54,3.07,-1.87,0.21,0.05,0.51,0.99,-1.75,-3.84,30.41,0.14,-0.21,-0.84,-9.36,10.11,-18.97,0
-0.34,0.37,0.66,-1.82,-0.4,-10.53,-0.55,-0.39,0.69,-11.03,8.85,5.01,-0.16,-0.36,0.51,1.87,-4.54,6.42,0
-0.68,1.1,1.32,4.88,-3.35,-3.47,-0.18,-0.73,-0.03,0.7,-5.94,-15.57,-0.92,-0.39,0.14,18.61,9.29,14.97,0
-0.08,0.5,-0.03,-12.7,0.55,1.9,-0.33,0.62,-0.63,4.61,-7.9,30.33,-0.92,-0.39,-0.46,-7.76,-1.94,26.2,0
-0.53,1.7,-0.33,7.32,6.9,-0.05,0.72,1.22,0.42,-3.69,-5.45,4.45,1.03,-0.09,-1.66,-4.34,0.99,-7.5,0
-0.53,2,0.42,-5.86,-6.28,-11.77,0.72,1.22,-0.03,-3.2,-3.5,-0.92,0.13,0.21,-0.01,9.33,-3.41,1.29,0
-0.68,0.65,0.57,1.95,4.95,-6.4,-0.33,-0.58,-0.18,-11.99,-8.38,-2.39,-0.02,1.11,0.14,5.42,-12.2,12.04,0
0.37,-0.7,-0.18,-8.31,10.32,-4.94,0.27,0.47,-0.33,8.03,-9.36,-6.78,-0.62,-1.29,-0.01,8.84,-6.34,0.81,0
0.37,0.95,-0.03,4.88,10.32,2.88,-0.93,0.47,-0.33,-2.23,-13.75,2.98,0.13,-0.54,0.74,4.94,0.01,-0.17,0
1.27,1.1,-0.18,5.85,-5.8,-0.54,0.27,0.77,0.42,-2.23,5.29,4.45,0.13,-1.74,-0.76,11.77,11.24,-9.94,0
0.37,0.5,-0.78,4.39,5.92,3.36,1.02,0.47,-0.33,-0.76,2.36,-12.15,-1.22,-1.44,1.34,-9.22,6.85,2.76,0
-0.53,1.7,0.42,2.92,-2.38,-91.36,-0.18,1.22,1.17,-23.22,23.84,25.44,-0.47,-0.39,-0.91,-51.22,8.31,46.22,0
-2.48,3.05,-1.38,-7.33,7.39,-37.65,-0.78,-0.13,0.12,-3.2,-1.55,36.19,-0.62,-0.54,-0.31,-1.41,-9.27,5.69,0
0.37,2.45,-0.78,-1.47,8.36,10.69,0.12,0.62,-1.38,7.54,13.1,0.54,-1.52,0.81,1.49,2.5,-13.17,-4.57,0
-2.18,2,-0.78,15.62,-1.89,2.88,-0.48,1.22,-0.33,-4.18,6.75,6.4,-1.07,0.51,0.44,9.82,-11.22,1.78,0
0.07,0.65,0.27,1.46,12.76,-10.31,0.12,0.62,2.07,7.54,6.75,6.4,0.13,0.21,1.49,10.31,-6.34,19.36,0
-1.13,1.4,-0.18,16.6,7.39,-6.4,1.02,-0.28,-0.03,2.17,16.03,-9.22,0.13,-0.24,0.44,16.17,1.96,-4.08,0
-0.38,0.35,-0.18,-10.75,17.15,-1.03,1.02,-0.28,1.17,-4.67,6.75,-7.27,0.73,-1.14,0.89,9.82,4.4,-2.61,0
-1.43,1.25,0.72,6.34,11.78,-8.84,-0.33,-0.58,-0.18,-11.5,14.08,-0.92,-1.07,0.21,1.49,-16.06,9.29,0.32,0
0.52,0.65,0.27,-7.33,6.41,-9.82,1.77,-1.33,1.77,0.21,17.98,0.05,-0.32,0.51,0.74,12.75,6.85,-5.54,0
0.37,1.25,1.17,4.39,32.78,17.04,2.67,0.47,2.67,-3.69,6.26,15.19,-0.62,-0.54,1.19,15.68,-1.94,-0.66,0
-0.08,1.7,0.42,0.97,9.34,9.71,3.12,0.77,3.12,3.63,12.12,1.03,0.13,-1.29,2.99,3.47,-6.34,13.99,0
1.57,0.5,-0.03,7.81,4.46,7.76,2.97,-0.58,4.32,-4.67,10.17,-14.59,1.33,0.21,0.44,19.58,-4.38,8.13,0
-1.13,0.65,-0.93,-9.77,-2.87,-64.02,1.92,-0.28,1.92,-14.92,33.12,-55.61,-0.32,0.51,0.74,3.96,17.59,36.94,0
0.67,0.95,0.72,-31.25,6.41,17.04,0.87,0.62,1.02,42.7,-33.29,-118.6,0.88,-0.24,0.74,-50.24,-1.94,-4.08,0
0.52,-0.1,0.27,-6.84,7.88,2.39,-0.48,0.02,-0.78,-14.92,9.19,-6.78,-0.47,-0.39,0.59,-11.67,0.5,-4.08,0
-1.43,0.95,-1.23,-2.45,-10.19,0.92,-0.48,0.77,0.72,4.12,3.33,-8.74,-1.07,0.51,-1.51,0.54,0.5,0.81,0
0.67,-0.25,-0.78,-3.91,-0.91,3.85,-0.18,0.47,0.42,8.03,3.82,0.54,0.73,-0.84,0.14,7.87,3.43,7.64,0
1.72,0.65,0.57,-3.91,-0.42,-7.38,1.77,0.17,-1.68,2.17,1.87,11.77,-0.02,-0.39,-0.46,15.68,-1.46,0.32,0
0.37,0.95,0.42,0.48,-3.35,-5.42,-0.93,0.77,-0.33,-1.25,-4.97,-18.5,-0.32,-0.24,0.44,-6.29,-3.41,3.25,0
-0.53,-0.25,-0.03,12.2,16.18,8.25,1.32,-0.13,-0.63,0.21,6.75,6.89,-1.07,-0.24,-0.01,1.52,-0.97,-2.12,0
-1.58,0.35,-0.63,-1.47,-3.84,-6.4,-0.93,0.47,0.42,-0.76,10.17,-11.18,0.28,-0.09,-0.16,10.31,-10.24,6.18,0
0.67,0.95,1.17,-4.4,-7.75,-3.47,0.72,0.77,-0.78,-1.25,-0.57,-6.29,-0.32,-1.29,-0.76,2.98,3.43,-7.01,0
0.37,-0.25,0.72,0,0.55,14.11,0.42,-1.33,-0.18,1.68,0.89,2.01,0.28,0.36,-0.91,2.5,1.96,2.27,0
1.12,-0.7,-0.03,3.9,-0.42,-11.77,-0.78,0.62,-0.63,-7.6,1.87,16.17,0.28,-1.14,0.14,-7.76,0.99,23.75,0
-0.08,0.95,-0.33,2.92,1.04,-4.45,-0.18,-0.28,-0.03,-8.57,0.41,-5.32,-0.32,-0.54,-0.76,7.38,-6.83,-2.12,0
0.52,0.65,1.02,-2.93,1.53,-3.96,0.12,-0.13,-0.63,10.96,-9.36,-7.76,-0.47,-0.84,-0.16,1.52,1.96,8.13,0
-0.98,0.5,-1.98,4.88,-3.35,8.25,-0.18,-1.78,-0.33,9,8.71,4.45,-1.22,-0.39,-0.16,5.91,22.96,8.13,0
-0.53,0.95,0.42,-10.75,1.53,-13.24,0.87,0.92,1.32,3.63,-0.08,4.45,0.13,0.21,-0.76,-1.41,6.85,-4.57,0
-1.13,-0.4,0.27,-4.4,9.34,0.43,0.12,0.62,-0.63,2.17,3.82,-2.39,-0.62,0.81,-1.06,-0.92,-5.85,-5.05,0
0.07,1.4,1.02,-4.89,-1.4,11.18,0.72,0.47,-0.78,11.45,-2.04,-8.25,-0.47,-0.39,-0.16,9.33,-5.36,4.71,0
1.27,0.35,0.27,10.74,0.55,-13.24,-0.48,0.47,-0.33,14.86,-1.55,2.5,0.73,-0.09,0.89,-2.88,2.94,7.15,0
-0.53,0.95,0.72,10.74,2.99,4.34,-0.18,-0.73,-0.33,4.61,-2.04,-5.81,0.73,0.36,0.14,8.84,-0.97,-1.15,0
-1.13,0.35,-1.38,-2.45,0.06,16.55,0.72,0.92,-0.93,7.54,-16.2,-0.43,-0.92,-0.39,0.14,0.05,4.4,9.59,0
-0.98,-0.25,0.42,0.97,5.92,-5.42,0.12,0.17,0.12,-3.2,2.85,-3.36,1.48,0.36,-0.16,-8.74,8.31,9.59,0
0.67,0.5,-0.78,0,-3.84,-8.35,-0.18,1.22,-0.03,-8.57,-11.31,-22.41,0.13,1.56,1.19,6.89,8.31,4.71,0
-1.43,0.95,0.42,-13.19,1.04,12.15,-0.33,-0.13,0.12,-4.67,-3.01,7.87,-0.02,-1.89,-0.91,6.89,0.5,-6.52,0
0.37,-0.25,0.42,-8.79,9.34,2.39,1.32,0.62,0.12,3.14,17.01,-0.43,0.28,0.36,0.89,-0.92,1.47,1.78,0
-0.08,0.05,0.42,4.88,-4.33,6.29,0.12,0.62,-0.18,2.17,3.82,-7.27,0.13,-0.24,-1.06,2.98,-1.94,-7.98,0
-1.73,-0.25,1.17,-3.91,-4.33,-10.31,1.77,-0.13,0.57,7.05,2.36,-5.32,-0.62,0.21,0.74,-10.69,-3.41,14.97,0
0.37,0.95,-0.78,-5.38,8.36,-9.82,1.47,0.47,-0.33,2.17,-8.38,0.54,0.43,-0.54,0.74,4.94,-0.48,6.67,0
0.67,-0.25,-0.03,-4.4,-0.91,-6.4,-0.18,0.47,-0.03,1.19,-2.52,-6.78,-0.32,0.21,-0.01,1.03,8.8,-3.59,0
0.5,1.13,0.73,-0.83,8.29,-2.88,0.85,0.36,-0.75,-0.4,-10.96,14.77,-0.89,-1.08,-0.13,5.77,-3.62,7.05,0
0.8,-0.07,1.18,10.88,6.83,0.54,0.7,0.06,0.6,5.46,-6.57,-11.11,-0.44,0.72,0.62,-4.49,8.59,0.7,0
-0.55,1.28,-0.17,0.63,2.92,24.95,-0.05,1.26,0.6,0.09,11.5,2.07,0.16,-0.93,0.32,9.67,-0.69,-21.27,0
0.5,0.38,-1.52,6.49,7.8,-2.39,-1.1,-0.09,0,9.37,2.22,13.3,-0.14,0.42,-0.13,11.14,-10.94,-12.49,0
-0.55,0.98,-0.92,-5.23,-4.4,-6.79,0.1,0.36,0,-2.35,-3.64,-0.37,0.91,-0.63,0.32,-3.51,12.98,-1.74,0
1.25,0.83,0.43,-5.23,-2.45,1.03,0.55,0.66,0,-3.81,-7.06,-3.79,-0.44,2.22,1.37,3.81,0.78,-0.77,0
0.8,-0.07,-1.22,-11.58,15.62,4.44,2.2,-0.39,-1.05,-0.4,-2.66,-1.84,-0.74,-0.93,0.32,-4.49,-9.97,0.7,0
0.5,0.83,-0.32,5.02,4.87,-6.79,-0.05,0.51,-0.9,-6.25,-0.22,-0.37,-1.49,0.12,0.77,10.16,-3.13,-4.67,0
0.5,0.38,0.73,-2.79,-0.01,-19.97,-0.35,-0.39,0.45,-10.65,-4.61,3.05,0.31,-0.78,-0.13,3.33,-7.04,-13.46,0
1.4,0.53,-1.37,-8.16,8.29,2,1.15,0.51,-0.6,4,5.64,-16.48,-0.74,-1.68,-0.28,1.86,-10.94,7.53,0
0.65,0.98,-0.62,-13.04,9.27,-6.3,0.55,-0.09,0,-5.28,-0.22,2.07,0.61,-0.33,-0.58,-3.02,-3.62,-3.21,0
1.25,1.13,-0.32,8.93,6.34,39.11,0.25,0.06,-0.15,86.52,-124.73,-216.19,0.31,0.42,0.17,-59.17,24.7,35.37,0
0.05,0.38,0.43,-2.79,16.59,14.21,-0.95,-0.24,0.6,13.28,23.22,-2.32,-1.34,-0.33,1.67,-14.74,-0.69,-6.63,0
0.2,1.28,-0.17,3.56,11.22,-1.42,0.7,-0.24,0.15,-5.77,17.85,8.42,-0.14,1.02,1.37,33.11,-12.9,-16.39,0
0.2,0.98,0.58,-4.74,16.59,14.21,0.7,0.06,1.35,-1.37,17.85,6.95,-0.44,0.72,1.67,-0.09,-6.55,12.91,0
0.2,1.73,0.58,2.58,6.83,-10.21,0.1,-0.39,0.75,-6.25,14.92,-10.63,0.46,0.12,1.52,-0.09,-4.59,4.12,0
0.65,0.98,-0.17,1.61,22.94,0.54,-0.05,1.71,-0.15,-0.4,14.92,-14.04,0.91,0.12,1.07,4.79,4.19,-4.18,0
-0.25,2.18,0.58,-4.25,8.29,-3.86,0.55,-0.09,1.2,3.02,17.36,-6.72,0.16,0.57,2.57,-10.35,-4.59,3.63,0
0.2,1.73,0.28,-2.3,-0.99,-3.86,1.15,0.51,1.05,-4.3,19.8,1.58,-0.29,-0.63,1.82,3.33,-10.45,-16.39,0
-1.45,0.53,0.28,-1.32,21.47,1.03,1.6,-0.24,0.15,-3.33,16.87,14.77,0.16,0.12,3.02,-5.95,-13.87,4.12,0
0.8,0.83,0.43,13.33,5.85,19.58,0.85,-0.09,2.25,-8.21,7.1,23.55,1.21,-0.18,2.27,-4,16.89,3.63,0
-0.55,0.53,-0.92,-9.62,15.13,30.81,3.1,0.51,2.55,4.98,13.45,24.04,1.51,-0.33,2.42,15.53,-5.57,11.44,0
-0.85,1.58,-0.02,-22.32,12.69,58.64,1.9,1.26,1.8,-0.4,0.27,75.31,1.06,1.47,1.67,18.95,15.42,10.95,0
0.5,1.13,0.43,-68.71,17.57,-180.62,1.6,-0.69,-0.9,38.67,-19.26,20.14,1.51,-0.78,0.17,-129.49,-51.47,-212.19,0
-1.9,-0.52,1.03,3.56,8.78,1.51,0.85,0.66,0,11.81,-1.2,7.44,0.31,-0.78,-0.58,-1.07,-10.45,2.65,0
-0.25,-0.22,-1.37,0.14,-2.94,-2.39,0.1,0.66,0,-2.35,4.66,9.39,-0.14,0.42,0.62,-7.42,2.24,3.14,0
-0.25,0.53,1.03,-2.3,5.36,13.72,-0.05,-0.24,0.15,-5.77,-2.17,-5.25,0.61,-0.78,0.17,12.6,-4.11,-10.04,0
0.2,-0.22,-1.37,0.63,2.92,-3.37,1.15,0.06,-0.6,4.98,-5.59,-1.84,0.16,0.12,-0.28,-7.42,-3.62,8.02,0
-0.4,1.13,1.63,-1.81,8.29,-1.42,-1.7,-0.24,0.15,0.09,-5.59,-5.25,-0.89,-0.33,-0.58,-2.53,0.29,-9.56,0
-1.3,1.13,-1.97,0.14,17.08,11.77,0.7,0.06,-0.6,-12.6,1.25,8.42,-0.44,-0.03,-0.13,11.14,-2.15,-5.16,0
-0.25,2.18,-0.17,9.42,-5.38,21.04,0.85,-0.39,0.45,4.98,2.22,-6.23,0.31,-0.33,-0.58,14.56,-6.06,5.58,0
-1,0.53,-0.62,0.63,-4.89,-4.35,0.85,-0.09,-0.3,-1.86,-1.2,15.25,0.16,-0.18,0.02,0.88,-5.57,2.16,0
0.65,1.28,1.03,-18.41,10.73,5.42,0.25,-0.69,0.15,9.37,13.94,-21.86,-1.04,-0.18,1.07,-1.56,-11.92,-34.46,0
0.05,0.38,-1.22,6,-5.38,7.37,-0.35,-0.09,-0.3,0.09,-5.59,-4.77,-0.44,-0.03,-1.33,0.88,-5.57,-6.14,0
1.25,-0.37,0.73,14.79,9.76,8.84,-0.95,0.06,-0.9,-2.35,9.55,17.7,-0.74,0.12,-0.73,-8.88,-5.57,-0.77,0
-1.45,0.53,-0.92,6.98,7.31,3.47,-0.5,0.06,-0.9,4,-1.68,-6.23,0.16,-0.18,-0.28,1.86,0.78,-11.51,0
-0.4,-0.07,-0.32,9.91,3.41,2.98,-0.05,0.06,1.05,-6.74,8.08,-3.3,0.91,0.57,-0.28,1.86,1.26,3.63,0
1.1,0.53,0.58,-1.32,12.69,-6.79,1.6,0.51,1.8,3.02,0.27,-0.86,-1.64,0.42,-0.88,-5.46,3.71,0.21,0
0.8,1.58,-1.22,-7.18,1.46,4.44,-1.1,-0.84,0.45,-7.23,-7.06,-12.58,-0.44,-0.03,1.67,-1.56,3.22,-3.21,0
-0.55,0.98,-0.62,5.02,15.13,-0.44,0.25,-0.24,0.15,2.53,-10.96,-6.72,-1.04,-0.63,-0.73,1.86,1.75,4.12,0
1.1,0.23,-0.92,3.07,11.22,3.47,0.7,-0.24,-1.35,4.98,6.13,-6.72,-0.14,0.72,0.62,-4,-7.04,-16.39,0
0.2,0.53,0.58,3.56,-3.92,-3.37,0.85,-0.39,-0.3,-5.28,-4.13,2.56,0.61,0.72,0.92,1.86,4.19,1.67,0
0.2,0.98,-0.62,13.33,11.71,15.19,-1.25,0.81,0.15,0.09,-4.61,-17.46,-0.89,-0.33,0.92,-8.39,9.08,-4.67,0
-0.25,1.28,-0.17,3.56,1.94,-10.21,-0.5,0.06,1.35,-3.81,-12.92,6.95,-0.74,0.12,0.02,3.81,-7.04,-18.34,0
0.05,-0.82,-1.22,-0.35,6.34,1.51,-0.05,0.06,0.6,1.56,0.27,-1.84,0.61,-0.33,-0.13,4.79,-8.01,-4.18,0
0.65,2.18,0.28,-2.79,8.29,12.74,-1.1,0.66,0.45,-3.33,-10.96,-4.28,-0.89,0.42,-0.58,-8.39,6.64,6.56,0
-0.25,1.73,0.28,-0.35,-5.87,8.84,-0.35,-0.84,-1.05,2.53,-9.99,4.51,-0.74,1.62,0.02,-11.81,2.24,-1.74,0
-0.4,1.88,0.73,6.49,-0.01,5.91,0.1,0.66,0.45,-0.88,-9.99,-5.74,1.06,-0.33,-1.33,18.46,-4.11,-0.28,0
0.05,-0.37,0.43,6.98,-6.85,6.4,-0.05,1.26,1.05,-8.21,1.25,-6.23,-1.34,-0.03,-0.58,-1.56,-2.64,12.42,0
-0.55,-1.42,-0.17,-1.32,3.9,9.81,0.1,-0.09,0.45,-8.7,-1.68,2.56,-0.74,0.87,-0.73,0.88,-18.75,-6.14,0
-0.71,0.63,-0.67,-0.76,-1.16,3.89,-0.68,0.66,-0.12,1.7,-0.09,-5.71,0.7,1.25,1.81,1.33,9.26,4.38,0
-0.41,1.38,-0.67,6.57,1.77,4.86,0.07,-0.09,0.63,-11,-1.06,15.28,0.25,-0.1,-0.59,-2.57,7.31,11.71,0
-0.56,0.48,1.13,-10.03,-3.6,-5.88,-0.38,-0.39,0.33,-9.53,6.26,3.08,-0.95,-0.4,-1.34,-1.11,-2.94,15.13,0
-0.71,1.08,0.98,0.22,-4.58,3.89,1.12,-0.69,0.93,-4.16,1.38,-6.2,-0.05,-0.55,0.31,-11.85,-5.39,-5.87,0
-0.56,0.48,0.68,0.22,3.23,-13.2,0.67,0.06,-0.27,-3.18,5.28,20.65,-0.8,0.2,1.06,7.68,-7.34,3.41,0
0.64,-0.27,0.38,-6.62,13,5.35,1.12,-0.24,-0.27,-12.95,0.89,3.08,0.55,0.35,-0.14,-2.08,-1.48,6.83,0
-0.41,-0.42,-0.67,6.08,1.77,-1.97,-0.98,0.06,-0.27,5.12,6.26,-11.08,-2.3,0.2,0.01,15,-4.41,-8.31,0
0.49,0.63,-0.67,-7.1,3.23,0.96,0.22,-0.99,0.03,-8.55,-8.39,-3.27,-0.8,0.5,0.01,3.29,12.19,-1.47,0
1.24,0.63,-0.22,3.64,-8.49,0.47,0.07,-0.09,0.63,2.68,9.68,-1.32,0.4,0.8,0.31,1.33,7.31,0.48,0
-0.41,0.63,-0.22,-0.76,9.58,3.4,0.07,0.66,-0.42,-11,3.82,1.61,-0.95,-0.4,0.16,3.29,-2.94,-8.8,0
-0.11,0.48,-0.37,9.99,-0.19,-10.76,0.07,-0.09,0.33,-19.3,-9.85,-7.18,-0.35,-1,0.01,-5.99,-3.43,-15.15,0
-0.41,-0.12,-0.67,-17.36,7.14,0.96,-0.38,0.66,-0.12,5.61,-1.55,-4.74,-0.65,-0.4,0.91,7.68,-6.36,-4.89,0
0.04,-0.87,-1.87,-3.2,5.19,-3.93,0.52,-0.09,-0.87,1.21,5.77,1.61,-0.05,-0.55,0.01,1.33,-8.32,0.48,0
1.99,0.93,-0.82,15.36,14.95,-16.62,0.22,0.51,-0.72,8.54,-30.36,-12.06,-0.95,-0.4,0.16,-1.6,10.73,40.03,0
-1.76,1.23,-0.82,3.64,5.67,13.16,-0.68,0.36,-0.87,-13.93,23.35,-11.57,1,-0.85,1.21,1.82,11.7,-12.22,0
-0.71,1.08,0.53,6.57,14.46,10.72,-1.88,1.41,-0.87,-11.97,41.9,2.59,0.7,-1,1.06,3.77,-1.97,1.94,0
-1.01,0.93,0.38,6.57,19.35,6.33,0.07,0.36,-0.42,13.42,4.79,4.54,0.55,-0.1,0.46,1.82,-8.32,19.52,0
0.94,1.83,-1.42,4.13,10.07,-1.48,-0.08,0.51,0.03,-6.6,6.75,-0.83,-1.55,-0.25,1.51,10.61,-0.01,5.36,0
-0.71,0.63,0.53,6.57,-1.16,-7.83,-0.98,0.06,-0.72,-0.25,8.7,-1.32,0.25,-0.1,0.91,9.15,-8.8,-5.38,0
-0.71,1.38,0.23,2.66,3.23,-3.93,-1.28,0.06,0.48,2.68,3.82,6.01,1.3,-1.15,0.91,6.22,-11.73,2.92,0
1.54,0.93,0.38,11.94,19.83,-1.97,-0.68,-0.39,0.63,-6.11,10.17,14.31,0.4,1.55,0.76,-4.53,5.84,9.76,0
0.64,-0.72,0.38,8.03,15.44,-12.23,-0.68,-0.09,-0.42,6.58,11.14,-12.55,-0.05,0.5,1.81,19.4,-5.39,8.78,0
0.94,0.63,1.28,0.71,16.42,9.26,1.27,0.36,0.63,-4.65,12.12,8.94,-1.85,-0.1,1.21,1.82,3.4,6.34,0
0.04,2.28,0.53,-2.22,18.37,10.23,2.17,-0.84,2.58,13.91,13.58,-0.83,1.3,0.35,1.66,4.26,-9.29,-1.96,0
1.54,0.03,1.58,3.15,21.3,-5.39,2.47,-0.84,3.33,2.68,17.98,34.81,0.7,0.2,2.56,15.98,-13.69,-0.99,0
0.64,0.48,0.68,16.33,23.25,76.64,2.77,-1.14,2.58,-2.7,-6.44,91.94,0.55,0.35,2.71,-11.36,-5.87,25.38,0
0.64,0.93,-0.37,-90.6,30.09,52.23,0.07,-0.39,0.63,-19.79,12.61,25.54,0.4,0.5,1.51,35.51,-9.78,-8.31,0
1.09,1.68,-0.07,-4.66,-10.44,16.58,0.82,-0.39,-0.42,-5.14,12.61,-3.76,1.3,-0.4,-0.59,10.12,3.89,-42.98,0
-0.11,0.03,0.38,1.68,11.04,2.42,-0.68,-0.09,-1.17,4.63,3.82,4.05,0.4,-0.55,0.76,8.17,0.47,5.36,0
-0.11,0.03,-0.82,-2.22,2.26,-11.25,-0.38,-1.59,0.33,-12.95,-3.02,3.08,-0.35,-1,-1.19,-3.06,6.33,0.48,0
-0.56,0.03,-0.07,0.71,-2.14,4.86,-0.53,-0.99,1.23,-6.11,0.4,-9.13,-0.35,-0.55,0.01,7.19,14.15,-0.01,0
0.34,1.98,-0.37,6.08,-12.39,3.89,-0.68,1.11,-0.87,-9.04,2.84,-13.04,0.55,-0.4,0.46,-12.83,-6.36,-7.82,0
-1.01,0.03,1.58,0.71,0.79,13.16,1.57,-0.24,-1.02,-0.25,-5.95,-1.81,-0.05,-0.55,0.76,-1.6,-2.46,-0.5,0
-0.56,0.93,-1.57,0.71,-7.02,-7.34,0.52,0.36,1.08,-0.25,-0.09,-2.29,1,-0.4,-0.89,-6.48,0.47,1.46,0
0.04,1.08,-0.67,-10.52,15.44,15.61,0.22,0.51,-0.72,-7.09,-3.02,-0.83,0.55,-0.4,0.16,1.33,8.77,0.97,0
-1.01,1.23,-0.07,1.68,8.12,7.79,-0.98,0.06,0.48,9.02,5.77,20.65,1.75,-0.4,0.16,-1.6,4.38,9.76,0
0.49,0.33,-0.22,1.68,2.26,-18.09,0.07,1.11,-0.12,-2.7,0.4,6.01,0.4,1.25,0.76,-16.25,-0.01,15.62,0
-0.41,1.08,-0.67,5.1,7.14,5.35,0.82,-0.09,-0.12,-11.48,-10.83,4.54,1.15,0.5,0.76,-0.13,6.33,-15.15,0
-0.71,1.08,-1.87,9.5,10.56,-4.9,0.52,-0.09,0.33,-10.51,2.84,-3.27,-0.65,-0.4,0.46,-11.36,7.31,13.66,0
-0.56,0.93,-0.82,-8.08,-4.58,2.42,-1.58,-0.39,0.33,10.49,-0.58,-8.15,0.25,-1.15,0.91,-4.53,1.45,2.92,0
-1.46,-0.27,0.38,3.15,7.14,2.91,0.07,-1.14,1.38,3.16,-4.48,0.64,0.25,0.65,0.91,-3.06,1.45,12.2,0
-0.56,0.03,-0.07,-8.57,-12.88,-3.93,-0.08,0.06,0.48,-0.74,-7.41,7.96,0.7,-0.25,0.76,-7.46,-0.5,-12.22,0
0.34,-0.72,-0.37,5.59,5.67,-3.44,0.07,0.36,0.63,-3.67,2.84,-9.62,-0.05,-0.55,0.01,1.33,6.82,-0.01,0
-0.41,-0.12,0.53,-6.13,7.14,10.72,-0.68,0.66,0.33,-1.72,8.21,-0.83,-0.65,-0.1,0.46,7.68,6.82,-13.19,0
-0.41,0.63,-0.67,9.01,-4.09,4.86,-0.38,0.66,0.33,7.56,-9.37,-2.29,0.4,-0.25,0.01,-0.13,-3.43,9.27,0
0.34,0.03,-0.07,2.66,5.67,-7.83,-0.53,-0.69,-0.72,3.16,13.58,-5.22,0.4,-0.55,0.76,-7.94,15.12,4.38,0
-0.56,0.48,-0.37,-7.1,5.19,21.47,-0.98,0.81,-1.02,-2.21,3.33,-13.04,0.4,-0.55,0.76,5.24,-0.01,-8.8,0
-1.16,0.63,-0.97,13.89,2.74,12.68,0.82,-0.09,0.33,-1.72,-11.32,0.64,0.7,-0.25,0.31,4.26,4.38,-0.01,0
-1.16,1.38,0.98,-8.08,4.7,-4.9,-0.68,0.36,1.38,-5.14,5.28,-4.74,0.4,-0.55,0.76,-7.46,5.36,1.94,0
0.34,0.93,-0.07,11.45,0.3,1.45,1.12,-0.69,-1.02,7.07,-3.02,7.96,1,-0.4,-0.14,-1.6,1.45,2.43,0
0.49,-0.85,0.02,2.67,0,-3.59,0.34,0.12,0.89,-3.52,0.21,5.66,0.21,-0.58,-0.08,5.43,-0.71,13.95,0
-0.26,0.5,-0.58,-10.52,1.47,-1.64,1.69,1.32,-0.31,-10.35,-5.17,8.11,-0.69,-0.13,-0.38,0.55,-2.67,-1.18,0
0.19,0.8,-0.58,4.13,-4.39,-16.29,1.69,0.87,-0.01,2.83,4.6,-6.54,-0.24,0.92,-0.08,-18.5,-7.06,4.19,0
-0.26,-0.7,0.62,0.22,0.98,9.59,1.39,-0.33,0.59,-6.93,-7.12,-7.52,-0.39,0.77,-0.23,-7.27,-0.71,-11.44,0
0.64,0.5,-0.58,3.15,0.98,10.08,-0.41,-0.93,0.44,-1.07,7.04,6.64,-0.69,0.62,0.67,4.45,-18.29,11.03,0
-0.41,-0.55,0.77,-9.05,3.42,10.57,0.94,1.47,-1.66,7.71,6.55,4.2,0.96,0.17,-1.13,2.5,-8.53,-3.14,0
0.04,-0.85,0.02,2.18,-10.25,-5.06,-0.41,-0.18,-0.76,-6.45,-8.58,-2.64,0.21,-0.13,-0.08,-2.87,6.61,2.72,0
0.49,1.1,0.47,-6.61,1.96,-5.55,-0.41,0.12,-0.01,2.34,-2.24,-0.68,-0.69,0.17,-0.38,-1.41,-5.11,-9.97,0
-0.86,0.35,0.77,-6.61,-3.41,13.5,0.64,-0.03,0.29,1.37,8.02,-10.45,1.11,0.77,1.57,5.92,-7.06,9.07,0
-0.56,-1.45,1.07,-4.66,7.82,-1.64,0.64,-0.03,-0.16,6.25,0.69,-7.03,1.11,0.47,-0.23,1.04,7.1,-13.39,0
-0.56,-0.25,0.62,0.71,2.45,4.22,-1.01,-1.08,1.34,-8.4,0.69,-3.12,-0.09,-0.28,0.52,9.34,-3.64,-6.06,0
1.24,-0.85,-1.18,-30.54,-5.37,-12.87,0.64,1.47,0.59,9.67,-8.1,26.17,-0.84,-1.03,0.52,2.01,-5.11,-10.95,0
0.04,0.35,0.02,-0.26,6.35,4.22,-1.16,0.12,-0.31,-9.38,-0.77,40.82,0.96,-0.58,2.17,-34.12,11.49,31.53,0
0.19,-1.45,-0.13,9.99,16.12,7.64,0.94,0.72,0.29,3.81,11.44,-30.47,-0.39,-0.28,1.27,-12.64,-0.71,11.51,0
1.09,0.5,-0.13,-2.22,7.82,1.78,0.79,-0.18,1.64,1.86,6.55,7.13,1.56,-0.28,2.32,-0.92,-2.18,3.21,0
-0.26,0.05,-0.58,8.04,3.42,6.17,0.94,0.72,-0.16,0.39,16.32,6.64,-1.29,-0.73,2.62,2.5,-9.99,-5.09,0
-0.26,1.7,-0.13,6.57,-2.92,-3.59,1.24,0.87,-0.01,-0.59,18.76,-16.31,0.21,-0.13,2.17,2.5,-9.5,-2.16,0
-0.86,1.4,0.02,0.71,11.24,-0.18,0.64,0.72,0.29,-10.84,19.74,-11.91,1.26,0.92,2.17,-4.82,3.19,-0.21,0
-0.86,0.65,0.02,5.6,14.17,-3.11,0.64,-0.33,2.09,-2.54,16.32,-1.17,1.56,1.52,1.87,-0.92,-6.57,2.72,0
0.04,1.4,-0.28,7.55,15.14,6.17,0.34,-0.93,-0.31,-4.98,8.99,18.36,0.66,0.77,2.32,5.43,-6.57,6.63,0
0.04,0.35,-0.28,0.22,18.56,4.71,2.29,-0.03,1.79,-8.4,5.58,8.59,0.36,0.77,2.32,-4.34,-1.69,-0.21,0
1.24,0.65,0.77,0.22,11.24,64.77,2.59,-0.33,1.34,-3.52,20.22,10.06,0.21,1.67,2.92,1.52,-10.48,17.86,0
-0.86,-1.3,-0.73,-1.73,7.82,7.15,0.04,-0.18,2.39,-5.96,5.09,19.82,0.96,0.62,2.17,3.48,0.26,14.93,0
-1.01,0.5,0.32,94.46,-33.69,-107.6,0.64,-0.03,-0.46,15.04,-33,-234.08,0.51,-0.58,0.97,-108.34,56.42,116.01,0
-0.26,-1,0.32,17.31,6.84,2.27,0.34,0.87,-0.01,16.5,5.09,-21.19,-0.69,0.17,-1.13,47.42,-1.69,3.21,0
-0.56,0.8,-0.13,-2.71,7.33,-2.62,0.94,-1.53,0.59,4.3,13.39,20.31,0.36,-1.48,1.27,2.99,6.12,-15.83,0
-0.56,0.05,-0.13,9.5,4.89,-3.11,0.34,-0.18,-0.31,2.34,2.16,-0.68,0.21,-0.13,0.22,-8.73,-12.43,4.19,0
-0.26,-1,-0.88,-1.24,-11.23,8.13,1.39,-0.03,-0.16,-1.07,2.16,2.25,-0.24,-0.88,-0.08,-11.17,-15.36,-5.09,0
-0.56,-0.25,0.32,9.5,3.91,-5.55,-1.01,0.42,0.59,-0.59,9.48,-6.05,-0.24,0.17,-0.38,-2.87,0.26,4.68,0
-1.31,-0.85,0.02,-3.68,-1.95,-1.64,-0.56,-0.03,-0.91,5.27,7.04,-1.66,-0.84,0.77,0.52,-11.17,4.17,9.07,0
1.09,1.25,-0.13,-5.63,-7.81,0.31,-0.26,1.47,-0.91,-5.47,-0.28,-2.15,-0.39,-0.28,0.07,0.06,-3.64,-4.11,0
-2.06,0.35,0.77,-11.49,12.21,-28.98,0.04,0.12,-0.31,2.34,-17.37,20.8,-0.39,0.77,0.52,8.85,-9.01,-30.97,0
-0.86,-0.1,0.02,9.5,1.96,-17.27,0.64,0.42,-0.16,-2.05,-4.68,0.29,1.26,-0.58,0.97,-11.66,-5.6,19.81,0
0.04,-1.3,-1.48,-5.15,-3.9,-3.59,0.64,-0.03,-0.46,1.37,6.55,5.18,0.21,0.17,0.67,-11.17,-9.5,-4.6,0
-0.26,0.05,-0.13,15.85,-3.9,-2.62,0.79,-0.63,-0.76,8.69,1.18,3.22,0.51,-1.18,0.67,-4.82,1.24,-3.62,0
-0.26,1.25,-0.58,3.15,8.31,8.61,1.24,0.57,-0.01,-4.98,-0.77,-6.54,0.96,-0.13,0.22,-1.89,2.22,-6.55,0
0.04,0.65,0.77,4.62,-1.46,-1.15,0.94,-0.33,-0.91,-4.49,-8.1,11.04,0.51,0.17,-1.13,0.55,3.68,-8.51,0
0.64,-0.7,1.37,-1.24,-11.71,-10.92,0.34,0.12,0.89,-1.07,1.18,2.25,0.21,-0.88,0.97,-4.82,1.73,8.58,0
0.19,0.05,0.32,4.62,-1.95,5.2,-0.41,0.87,-1.06,3.32,-5.17,-6.05,0.51,-0.58,0.67,2.99,-9.5,-2.16,0
0.04,-0.1,-0.28,0.71,-3.41,0.8,-1.46,0.72,0.59,-14.75,3.62,-3.61,-2.04,0.02,0.07,-5.31,4.17,7.12,0
0.19,0.5,-0.13,4.13,11.24,-8.96,-1.01,0.72,0.29,5.76,-2.72,9.57,-0.99,0.92,-0.38,-1.41,5.15,3.21,0
-0.56,0.8,0.32,0.71,-0.97,23.26,0.79,-0.63,-1.06,-9.86,4.11,-7.03,-0.24,-0.88,-0.38,21.05,6.61,-29.01,0
0.79,-0.55,0.77,-2.71,-9.76,-1.64,0.34,-1.38,-0.01,-5.47,-8.58,-2.15,-1.29,0.02,0.52,-17.03,0.75,0.28,0
-0.41,-0.85,-0.73,3.64,-4.88,5.2,-0.86,-0.18,-0.31,8.2,2.16,10.55,1.71,-1.63,0.67,-5.31,-3.15,-11.44,0
-1.01,0.5,-0.58,9.01,11.72,15.45,0.94,-1.53,-2.86,-0.1,1.67,-4.59,0.66,1.07,0.52,-15.57,4.66,1.26,0
-0.26,-0.7,-0.58,-2.71,5.86,-4.08,1.24,0.57,-1.06,-13.28,8.02,-5.08,-0.69,0.17,0.22,-7.27,2.22,-1.18,0
-0.56,-0.7,-0.58,-2.22,7.33,7.64,0.04,0.12,-0.01,3.32,-4.68,-5.57,-0.09,0.77,0.07,-6.78,4.66,-13.39,0
0.19,-1,-0.13,6.57,7.33,3.73,1.24,0.87,0.44,-6.45,8.02,0.29,-1.59,-0.28,0.82,0.55,2.22,-0.69,0
0.64,0.05,-0.58,-2.71,-6.34,1.78,-0.41,0.57,0.44,4.3,4.6,1.27,0.66,0.47,0.52,-12.15,0.26,-8.02,0
-0.56,0.8,0.62,9.99,3.91,-6.52,0.64,-0.33,0.59,-11.33,-1.75,2.25,0.21,-0.58,0.67,-3.85,-1.69,-5.58,0
-0.34,-0.03,-0.2,-1.03,20.19,7.25,-0.95,-0.15,-0.54,-5.06,8.21,-3.5,0.31,0.39,0.32,3.88,13.36,-4.33,0
0.56,0.42,-0.2,-4.93,13.35,-0.57,-0.05,0.6,-0.09,-1.16,-2.04,5.29,-0.44,-0.06,0.62,1.92,11.89,-3.35,0
0.11,0.72,-0.95,0.44,-4.71,1.88,1.6,0.9,-0.09,-0.67,-2.04,10.66,0.31,0.99,1.07,2.41,-7.15,11.78,0
-0.49,0.57,0.4,-0.54,-3.25,-2.52,-0.65,1.2,1.56,5.19,7.24,-3.5,0.61,0.69,-1.18,2.41,-10.57,-7.75,0
0.71,0.27,-1.25,-5.91,8.96,-12.77,-1.55,-0.75,0.81,1.77,-5.95,-3.5,-0.14,-1.56,-0.43,8.27,-7.15,1.53,0
-1.09,-0.33,0.25,2.39,6.52,2.85,0.7,0.15,-0.09,7.14,-4.97,0.41,0.46,1.59,0.47,11.69,-20.82,16.18,0
-0.34,1.17,-0.95,8.25,3.59,44.84,-0.65,0.75,-0.99,-4.09,26.28,50.7,-0.14,0.99,-0.13,29.76,-12.52,-2.87,0
-1.09,0.72,-0.95,-5.91,19.7,26.29,0.25,0.6,-0.54,-12.39,0.89,10.66,-0.14,-0.81,1.37,-0.03,-2.75,15.2,0
-0.94,1.77,-0.05,4.35,18.24,-33.28,0.85,0.75,0.51,-5.55,15.05,2.85,0.31,0.69,2.12,3.39,-6.66,26.43,0
0.41,0.27,0.7,12.65,12.38,9.2,0.85,1.5,2.01,1.77,13.58,7.24,0.91,1.29,2.27,6.81,-10.57,6.9,0
-0.34,0.42,1,7.28,24.58,-2.03,0.7,-1.35,2.16,1.77,8.7,-5.45,-1.04,0.09,1.52,13.64,-9.1,9.34,0
0.11,-0.03,1,4.83,21.17,-6.43,2.2,0.45,0.51,9.58,9.19,1.87,-0.74,0.84,1.22,6.32,-4.22,-3.35,0
-0.64,0.42,-0.65,5.81,13.35,-0.08,0.1,0.45,1.56,1.77,5.28,-2.52,0.91,-0.96,0.77,-1.98,-3.24,0.06,0
-0.64,0.42,0.55,19.97,-2.76,-4.47,1.75,-1.05,1.26,-1.65,12.61,3.33,1.06,0.39,1.37,12.67,-22.29,0.06,0
0.41,1.77,-1.25,4.83,25.07,-3.01,1.6,-0.15,1.86,-3.6,13.58,-11.8,-0.44,-0.81,1.37,7.29,2.13,9.34,0
2.06,0.57,1.15,5.81,0.66,4.8,1.75,-1.05,1.26,-5.55,8.7,3.33,0.16,-0.66,1.22,-1.98,3.59,15.2,0
1.31,-0.03,0.55,2.39,6.03,-3.5,2.5,0.45,2.01,-7.5,-1.55,3.82,0.31,-0.06,1.37,-4.91,-13.98,9.83,0
-0.49,1.02,0.7,-1.51,17.26,8.71,3.4,-0.3,3.51,-2.13,6.26,20.42,0.31,-0.36,2.87,-1.01,-19.84,-0.91,0
1.61,0.27,-0.8,7.28,19.21,29.71,1.9,-0.6,2.61,13.49,-13.76,124.43,0.46,-0.21,2.72,-14.19,-15.94,-14.58,0
0.56,-1.08,0.25,-26.42,-1.78,132.73,0.85,-0.3,-0.24,-65.12,82.43,28.24,0.16,-0.96,1.52,-13.21,2.62,22.04,0
-0.34,0.42,-0.95,7.76,-15.45,8.22,-0.35,-1.05,-0.69,7.14,-5.46,0.41,0.16,0.09,0.47,0.95,1.15,2.5,0
-1.54,-0.03,0.25,5.32,-3.25,-3.01,-0.5,0.6,0.21,-10.92,-4.97,18.96,-0.14,-0.81,1.37,5.34,-5.68,1.04,0
0.71,-0.63,-0.35,9.72,-4.22,7.25,0.55,-0.75,-0.99,5.68,8.7,-5.94,-0.89,-0.36,0.32,2.9,-4.71,3.97,0
-1.39,0.57,-0.8,11.67,-0.32,-8.38,-0.5,-0.9,0.21,9.58,0.4,3.33,0.46,-0.21,0.02,-3.94,2.13,3.48,0
0.11,0.42,1.3,6.79,-5.69,-5.94,0.1,-1.05,0.51,2.26,2.35,-4.97,-1.64,0.39,0.32,10.22,11.89,-6.28,0
1.01,-0.03,-0.2,5.32,3.1,-2.52,0.1,0,-0.99,-1.65,4.79,-3.99,-0.89,-0.06,-0.43,3.88,4.08,3.97,0
-0.04,0.27,-0.05,0.93,-4.22,-0.57,0.7,-0.15,-0.84,3.24,3.33,-0.57,1.21,0.09,-0.28,-1.98,-3.73,2.99,0
-0.34,0.57,-0.05,10.21,-6.18,10.66,-0.35,-0.75,0.06,-5.06,2.35,-0.57,-0.74,0.09,0.02,5.34,-9.1,-7.75,0
-0.34,-0.03,0.55,2.88,0.66,-5.45,-0.35,0.45,-0.99,1.77,-6.92,6.75,-1.04,0.09,0.02,-1.49,-1.78,8.85,0
0.41,-0.93,-1.25,-4.44,-8.62,-13.75,0.55,1.5,-0.24,13,-0.58,-16.68,-1.34,-0.06,-0.13,-3.45,3.59,7.39,0
-0.34,-0.78,-0.2,2.39,3.59,2.85,-0.35,0,-0.24,-0.18,-6.92,-3.01,1.51,-0.36,-0.88,7.29,-7.64,4.95,0
-0.34,-1.53,-0.95,-0.54,-3.25,1.39,0.25,-0.15,-0.09,14.96,-3.51,-13.76,0.91,0.84,-0.28,5.83,-3.24,5.92,0
0.71,0.27,-0.8,-8.35,1.64,1.88,-0.5,0.6,-0.09,0.31,6.26,-2.04,0.61,0.39,0.32,6.81,-3.73,3.48,0
0.41,0.27,1.15,-2.49,-9.59,-5.94,0.85,0,0.51,2.26,3.82,3.82,-0.29,0.09,-1.03,1.44,-1.78,6.41,0
-0.04,0.27,-0.8,5.32,-1.29,-5.94,0.7,0.6,0.21,4.7,1.38,-3.99,-0.14,-0.36,-0.13,-9.31,-3.24,9.83,0
0.41,0.57,-0.35,3.37,-5.69,-6.91,0.1,-1.05,1.56,11.54,-5.95,1.38,-0.44,-0.36,-1.18,5.83,14.82,8.85,0
0.11,-0.03,0.25,0.93,-5.2,-3.5,-0.35,0,0.51,4.21,-0.58,1.38,-0.44,-0.06,-0.88,-0.03,6.04,-6.28,0
-0.34,-0.03,-0.65,-4.44,-1.78,6.76,-0.05,-0.6,1.41,2.75,-7.41,10.17,0.31,-0.06,-0.13,2.9,-3.73,7.88,0
-0.04,0.27,-0.35,4.83,12.87,-7.4,0.25,0.6,0.21,0.31,2.84,-13.27,-0.44,-0.36,-0.88,2.41,5.06,0.55,0
-1.09,-0.33,0.55,-9.81,-8.62,3.83,0.1,-0.3,0.06,-17.76,6.75,3.82,-0.44,-0.06,-1.18,2.41,-6.17,-16.05,0
-1.09,-0.33,0.25,5.81,-3.25,-11.8,-0.5,-1.35,0.21,3.73,3.82,6.75,-0.14,-0.36,-0.43,9.74,4.08,10.81,0
-0.04,0.27,-0.35,-4.93,-6.18,8.22,-1.25,-0.15,-0.09,1.77,2.84,-7.9,-0.74,-0.96,0.77,-1.01,-7.64,-2.87,0
0.71,1.02,-0.05,-2,-6.18,5.29,0.55,0.45,-0.24,6.66,-6.44,-1.55,0.31,0.69,-0.13,-1.49,4.57,3.48,0
-0.49,0.27,-0.05,5.32,-1.29,-3.01,0.7,-0.15,0.21,3.73,-3.99,-5.94,-0.14,1.44,-0.13,1.44,-0.8,2.99,0
-1.39,0.57,-0.05,8.25,7.5,2.36,0.55,0.45,0.81,5.19,-13.27,-1.06,0.91,-0.21,-0.58,-3.45,-4.22,-0.42,0
-1.39,-0.18,0.4,-0.54,2.61,3.83,-0.35,0,0.06,7.14,-4.97,-2.52,0.61,-0.81,-0.13,-3.45,9.45,8.36,0
0.11,1.17,-0.65,-3.96,-12.52,1.88,1.15,1.35,-0.84,-10.43,-4.97,-2.04,-1.49,0.84,-0.58,3.88,3.11,4.95,0
0.71,-0.18,-0.05,-3.96,7.5,11.64,-0.95,0.15,0.66,0.31,-1.06,1.38,0.61,-0.06,-0.13,-4.42,1.15,-2.87,0
-1.39,0.57,0.7,4.35,2.61,0.41,-0.35,0.45,2.01,12.03,0.4,16.52,-1.49,0.54,0.77,-7.35,-9.59,2.5,0
0.71,-0.63,0.4,-2.49,12.87,2.85,0.25,-0.9,-0.09,-3.6,-1.06,-7.9,-0.14,-0.36,-0.13,-6.38,2.13,-14.58,0
-0.12,-2.17,-1.58,-3.6,1.13,-1.26,0.95,0.36,-0.18,-1,-4.37,-6.65,-0.56,-0.91,0.34,2.16,-4.21,0.75,0
0.63,-0.22,-0.37,-11.41,3.57,2.64,0.05,0.06,0.87,14.63,6.38,2.14,0.49,0.29,-1.16,-9.56,7.5,7.1,0
0.63,-0.22,-0.08,-6.04,2.6,11.43,0.8,-0.69,-0.78,1.93,-12.18,3.12,-0.56,0.29,-0.86,7.05,6.53,11.01,0
0.63,0.23,-0.08,-7.02,2.6,2.15,0.2,0.36,0.27,1.93,-7.29,-1.77,-0.86,0.44,-1.01,4.6,-8.12,7.59,0
-1.77,0.23,-0.08,7.14,5.04,13.38,1.25,0.81,1.17,-7.34,-4.37,3.12,-0.41,-0.31,-0.56,2.65,-6.17,-1.69,0
1.53,0.53,-0.37,5.19,5.04,-25.19,0.65,-0.84,1.02,-0.51,7.84,-9.09,-0.56,0.59,0.34,-22.74,4.09,22.24,0
0.48,1.13,0.52,1.77,7.97,-16.89,0.35,0.06,-0.78,3.89,1.01,-6.16,0.79,-0.01,0.49,-10.53,12.39,-6.57,0
-1.02,-0.22,0.67,-11.41,12.36,9.48,-0.25,-0.39,0.27,-1.97,6.38,5.56,0.94,0.59,-1.61,18.28,1.65,7.1,0
-0.42,-0.82,-0.98,1.28,-2.77,-10.54,0.05,0.06,1.17,5.35,3.94,-3.72,-0.41,-0.01,-0.56,-3.21,-3.24,-0.22,0
-0.72,0.38,0.52,1.77,-3.26,-1.75,0.05,0.06,-0.33,-7.34,9.31,5.07,-1.01,0.29,-0.86,2.65,1.16,-4.62,0
0.63,-0.97,0.37,-1.65,-2.29,3.13,-0.85,0.51,-0.78,1.93,6.38,9.95,0.34,-1.06,-1.31,0.21,3.11,3.19,0
1.08,0.53,-0.08,-7.5,3.57,5.57,-0.25,-0.09,0.57,-0.02,-0.95,9.46,-0.86,-0.31,-1.01,5.58,0.67,2.22,0
0.93,0.68,0.22,-16.78,1.13,0.2,0.2,-0.84,1.02,-13.69,-2.41,0.19,-0.86,-0.76,-1.01,1.19,-11.54,3.68,0
-0.72,0.38,-0.67,-6.53,3.09,2.15,0.35,1.71,-0.33,7.79,1.01,-9.09,-0.41,-0.76,0.04,0.7,6.04,1.73,0
-0.72,-0.37,0.22,8.61,2.6,-0.29,-0.4,-0.69,-0.03,-3.44,-3.88,10.93,0.19,-0.91,-0.41,8.51,-1.77,-0.22,0
-0.42,-0.07,0.52,-43.64,-125.82,-48.14,-0.25,0.36,0.57,74.2,-121.55,-77.45,-0.41,1.94,0.04,-143.83,47.06,48.12,0
1.68,0.68,0.97,-3.11,6.99,16.8,1.4,-0.39,0.27,-16.13,20.05,-0.3,0.34,-0.31,-0.56,18.28,2.13,-29.52,0
-0.12,0.98,0.37,-4.58,8.46,8.99,-1,-0.09,0.27,-20.53,13.7,18.74,0.34,-0.31,0.79,-1.25,-5.68,12.96,0
0.33,-0.22,1.58,-6.04,3.09,-6.15,-1,-0.09,-0.93,-0.02,12.24,2.63,-0.26,0.59,1.09,2.16,3.6,8.56,0
0.63,0.23,-0.83,-3.11,-0.82,-3.71,-0.4,1.26,0.42,-13.2,26.4,-17.88,0.19,-0.46,2.89,5.09,0.18,1.24,0
1.08,1.28,-0.37,-6.04,5.53,-1.75,-0.25,0.36,-0.18,0.47,18.58,-7.63,0.34,-1.81,1.99,10.95,-10.56,11.01,0
-0.72,0.68,-0.67,-8.48,10.41,1.67,0.2,1.41,-0.18,2.42,18.1,12.39,0.04,-0.01,0.49,10.95,0.67,11.01,0
1.08,1.28,0.67,-5.06,13.83,-15.42,0.35,0.51,-0.33,-1,15.65,-6.16,-0.56,0.29,1.09,-0.28,-6.66,5.63,0
0.33,0.53,-1.58,7.63,10.41,17.78,1.25,0.51,1.62,-7.34,21.03,4.09,0.04,-0.31,1.24,-5.65,5.06,9.05,0
-0.72,0.38,0.22,-2.62,23.11,3.62,1.85,0.36,1.32,-4.41,10.28,10.44,1.54,-0.31,2.29,-7.6,-0.8,-6.57,0
-2.22,0.23,-0.83,-13.85,19.2,-10.05,1.85,-0.39,1.77,-5.88,15.17,10.44,0.19,1.34,2.89,-26.65,6.53,34.44,0
-0.42,-0.07,-0.67,22.77,-2.29,-13.47,2,-0.99,0.42,-5.39,5.4,171.08,0.34,1.49,3.49,-18.34,-6.17,55.44,0
0.48,0.38,-0.23,-81.24,4.06,57.82,0.35,0.06,0.42,-15.16,12.72,-106.75,0.04,0.74,1.54,-157.5,-19.84,-90.56,0
0.03,-0.07,-0.23,-7.99,6.5,4.11,1.25,0.06,0.87,-1.48,-5.83,-15.93,0.04,-0.01,-0.56,-17.86,-3.24,-1.2,0
0.48,-0.37,-0.23,2.75,-10.1,4.59,0.8,0.51,-0.03,-7.83,-1.92,10.44,-1.01,0.59,-0.41,-11.51,7.5,7.59,0
1.23,0.38,-0.67,-2.13,-1.31,-0.78,0.05,-0.69,-0.33,2.42,-4.85,4.09,0.79,0.44,-0.26,-0.28,9.46,-8.04,0
-0.12,2.48,0.37,-2.13,-3.75,-7.61,1.25,0.81,-0.78,-6.86,2.96,4.09,-0.41,0.44,0.04,1.67,-12.51,9.54,0
0.33,0.53,-0.37,3.73,-3.75,-13.96,0.95,-0.39,0.57,-0.51,1.98,5.07,-1.61,-0.76,-0.56,-13.46,-2.75,-7.55,0
-0.57,0.23,1.12,-0.18,-4.73,-12.01,0.05,0.51,-1.08,-0.51,-2.41,-1.77,0.34,-0.01,-0.56,11.44,-10.07,-11.46,0
0.33,-0.22,-0.08,4.7,0.64,5.57,0.8,-0.24,-1.53,7.79,5.4,-6.65,-0.56,0.29,-0.41,14.37,-7.14,-22.69,0
0.48,-0.37,-0.98,-20.69,-3.26,35.36,-1.15,-0.69,-0.78,0.96,2.96,-17.88,-0.26,-1.21,-0.11,-5.65,-4.21,9.05,0
-1.02,1.28,0.67,15.44,3.09,41.22,0.2,-0.09,0.27,4.37,2.47,13.37,-0.56,0.29,-1.16,15.35,-17.4,-27.57,0
0.48,0.38,-0.67,-0.18,-8.63,2.64,0.2,-0.84,0.57,6.33,5.4,-0.3,-0.86,-0.01,0.04,0.21,-3.73,-7.06,0
-0.12,-0.22,-0.08,0.8,6.5,-1.75,-0.25,-0.84,-0.93,6.33,-18.53,15.32,-0.26,-0.46,0.64,-13.95,4.58,-3.64,0
0.33,-0.67,-0.08,-3.11,-6.68,-4.19,0.8,-0.24,-0.03,-0.51,2.96,11.9,1.54,-0.76,0.79,0.21,6.04,6.12,0
0.48,1.13,-0.98,-7.99,-8.63,-4.19,0.8,0.06,-0.78,-1.48,1.98,-11.04,-0.26,-1.66,-0.11,-15.9,-0.8,11.01,0
0.03,1.13,0.22,5.68,-4.73,-9.08,0.65,0.36,-0.48,-0.51,4.91,1.65,-0.41,0.44,-0.26,-0.77,-4.21,5.15,0
-0.42,-0.07,-0.23,-1.16,1.13,2.15,-0.85,0.81,-1.08,-5.39,2.96,-9.58,0.49,0.89,0.34,-8.09,9.46,13.94,0
-0.72,-0.07,-0.23,16.42,3.57,-11.52,0.05,-0.24,-0.78,-7.83,0.52,4.09,-0.41,-0.31,0.49,-15.42,3.6,5.63,0
0.03,-0.07,0.97,5.19,-3.75,8.5,-1.6,-0.69,0.42,-1.48,-10.71,6.53,-0.41,0.44,-0.56,-3.7,6.04,-4.62,0
0.48,0.38,0.52,-5.06,12.36,-22.75,0.95,0.36,0.57,-4.41,5.4,-0.3,-0.86,-0.76,-0.56,-2.23,-4.7,11.98,0
0.33,-0.22,-0.08,-5.06,-3.26,-4.68,0.65,-0.09,-0.18,-2.95,1.49,7.51,-0.56,0.59,0.64,5.09,5.06,-6.08,0
0.33,0.98,-0.08,2.26,3.09,-0.29,-0.55,0.36,-1.23,1.45,-7.78,4.58,-0.86,-0.76,-0.56,-3.7,-11.54,-1.2,0
-0.72,0.68,-0.98,5.19,-1.31,-7.61,-0.85,0.06,0.42,2.42,-17.06,-13,1.09,0.44,-0.26,2.16,6.04,-17.8,0
-0.72,0.38,-1.87,6.66,2.11,6.06,1.25,0.51,-1.53,-0.02,-5.34,-18.37,-1.01,0.29,-0.41,-23.23,-5.19,-2.18,0
1.04,0.54,0.02,2.37,-15.54,9.16,-0.44,-0.49,0.42,7.52,9.58,-15.07,0.6,0.5,0.6,4.94,-0.42,5.03,0
-1.06,-0.21,0.77,14.09,5.45,-38.7,0.76,-0.19,1.17,-10.05,2.25,-25.81,1.2,-0.1,-0.3,-11.17,4.95,41.65,0
-1.81,-0.21,0.47,11.65,16.2,122.44,-0.59,-0.79,0.12,-2.24,16.41,-109.79,0.6,-0.25,-0.45,32.29,-0.42,-70.65,0
1.49,-0.66,-1.18,-12.77,34.26,212.28,1.21,-0.49,0.42,29.99,-39.25,63.06,-0.9,-1.3,-0.15,82.09,-38.02,-175.63,0
0.89,-0.06,0.32,7.74,11.31,-5.01,0.01,0.26,-0.03,42.19,-112.5,16.67,-1.8,-1,-0.15,-3.85,-15.56,12.35,0
0.59,-0.66,-0.28,-7.89,6.43,-25.51,-1.04,-0.34,0.12,-0.78,-2.63,28.39,-0.9,0.05,0.15,-1.41,1.53,-35.99,0
-0.61,0.24,-0.28,-10.82,0.57,9.16,0.76,0.26,-1.08,2.64,58.89,51.83,-0.3,-1.9,0,54.26,0.07,56.79,0
0.59,0.54,-0.73,-15.21,4.97,21.36,-1.79,-0.34,-0.18,0.2,20.81,5.93,0.3,0.05,2.85,42.05,-14.09,-33.06,0
1.19,1.14,-0.13,-5.93,12.78,7.2,1.06,-0.79,1.32,2.64,29.59,18.13,0.75,0.65,3.3,-11.17,2.51,28.47,0
-1.21,0.69,-0.13,-12.28,23.03,75.07,1.51,0.71,3.27,-8.1,28.13,27.41,0.3,0.8,3.15,11.29,-11.16,-16.94,0
-2.26,0.24,0.02,92.21,52.82,232.3,2.11,-0.49,1.92,72.47,-44.62,180.24,0.75,-0.1,4.05,-2.87,17.16,65.58,0
-0.01,-0.36,-0.58,-1.54,-7.24,-1.59,0.46,-0.19,-0.33,4.59,-2.63,5.44,-0.15,1.25,0.15,4.94,10.32,15.77,0
0.29,0.24,-0.73,-3.49,-3.33,-5.98,-1.04,0.41,0.57,0.2,0.79,-5.79,0.75,-0.4,-0.75,12.27,-7.74,-24.76,0
-0.76,-0.06,0.32,13.11,-10.17,5.25,-0.74,0.26,1.17,-4.68,10.06,16.67,-1.2,-0.1,0,3.48,2.51,-7.67,0
-0.01,0.69,-1.78,-9.35,7.41,18.92,0.46,-0.49,0.72,2.64,-7.03,9.35,-0.3,0.35,-0.75,5.43,-1.88,-12.06,0
-0.01,-0.81,-0.58,1.39,-0.41,18.43,-0.44,0.56,-0.03,11.92,-4.58,-2.86,-1.2,0.65,1.2,3.48,1.04,-11.08,0
-0.61,0.99,-1.48,-3,-5.29,63.84,-0.44,0.26,-0.03,7.04,19.83,-44.85,0.3,-0.7,-0.45,-2.38,0.56,-21.83,0
-0.46,-0.81,1.37,-10.33,-0.41,-38.7,1.66,0.56,-0.03,2.64,7.13,-32.16,-0.3,-0.85,-0.3,-74.65,17.16,178.86,0
0.59,-0.21,-0.28,-15.7,12.29,19.9,-0.74,-0.49,0.72,-6.15,-6.54,-15.56,0.6,-1.3,1.35,1.04,12.76,17.24,0
-0.01,0.69,-0.13,12.62,9.85,-1.1,-0.74,-0.19,-0.03,6.06,-2.14,-4.81,-0.15,0.05,0.9,3.48,1.53,-6.69,0
-0.46,0.39,-0.58,1.39,-3.33,-8.91,-1.19,-0.94,-0.33,-8.1,5.67,-1.88,0,-0.1,1.2,-14.1,5.93,28.96,0
0.29,-0.21,-0.28,7.74,-2.36,0.85,-0.44,-0.49,1.17,-0.29,0.3,29.85,1.05,0.05,-0.15,0.06,-8.23,1.12,0
-0.76,-0.06,-0.58,-13.26,6.92,-14.28,-0.14,-0.34,-1.68,7.52,2.25,23.51,0.6,-1.3,0.15,-5.31,-1.88,-4.74,0
0.44,-0.06,-1.33,-5.44,-3.33,7.2,0.46,-0.19,-0.33,14.36,-5.56,42.06,0.3,0.05,-0.15,-6.29,-3.84,-16.94,0
-0.61,1.29,1.67,-5.44,2.52,-9.89,-0.59,0.41,0.12,-10.05,20.32,-55.6,0.45,0.35,0,0.06,12.76,68.51,0
0.59,-0.66,0.47,5.79,-13.59,-7.93,-1.04,-0.34,-0.93,-6.15,-1.66,-19.46,-1.2,-0.1,-0.3,10.31,-2.86,0.63,0
-0.46,0.69,-0.88,-0.07,-9.19,0.85,-0.59,0.41,1.02,-1.26,-13.37,23.51,0.45,0.35,-0.3,-1.89,-11.65,2.59,0
0.59,0.24,-0.28,12.13,-1.87,2.32,-1.19,-0.19,-0.03,-5.66,-13.86,14.72,-1.35,-1.3,-0.45,-3.85,-7.74,-3.27,0
-0.76,0.39,-0.88,3.83,-1.87,-1.1,0.16,-0.04,0.12,-1.75,-0.68,-9.21,-1.8,0.5,0.15,-0.92,-0.91,-4.25,0
0.59,-0.66,0.02,-3.49,16.68,-17.21,-1.34,0.41,1.02,-2.24,1.76,2.02,1.35,0.05,-0.45,-15.57,-5.3,4.05,0
0.89,0.69,1.07,8.72,1.06,-6.96,-1.04,-1.09,-0.63,-3.71,-7.51,62.08,0,-0.4,-0.75,1.04,-0.91,-12.06,0
0.59,0.24,0.77,-9.35,0.57,-12.33,-1.04,1.16,0.57,-1.26,-8.98,-8.23,1.65,-1.6,1.5,2.99,-3.35,1.61,0
0.44,0.39,-1.78,-1.05,1.06,7.2,-0.44,-0.19,-0.33,-0.78,8.6,-11.65,-1.35,0.5,0.9,8.85,2.02,-4.25,0
-0.76,-0.36,-0.58,10.67,-11.64,9.16,-0.44,-0.94,1.47,-8.59,3.72,10.32,0,-0.1,-0.3,0.55,-2.37,2.1,0
1.19,-1.11,0.32,4.32,5.45,-0.12,-0.44,-0.19,-0.33,3.62,-3.61,-2.37,0,-0.85,-0.3,3.96,-0.91,-3.76,0
0.44,-0.81,1.37,13.11,-1.38,6.71,0.46,-0.94,-0.33,-3.22,-2.63,-2.86,-1.35,0.5,-0.15,23.5,-7.26,-15.97,0
0.59,0.54,0.47,-8.37,6.92,21.36,0.61,-0.79,-0.18,0.69,-5.07,18.62,0.75,-0.4,0.45,0.55,3.49,-1.32,0
-1.06,-0.21,0.02,-0.56,-4.8,-112.43,-0.44,1.01,0.72,16.8,1.27,-26.3,0.3,-0.25,0.15,-30.21,10.81,54.83,0
-1.51,-0.21,0.02,1.88,-1.87,-6.96,0.01,-1.24,1.17,-4.19,6.16,16.18,0.75,0.35,0.45,14.22,-4.33,-17.92,0
-0.16,0.54,0.02,-3.98,1.55,-13.31,-0.14,0.71,-0.18,3.13,-1.17,-4.81,0,-0.85,2.25,3.48,6.9,8.45,0
0.89,-2.01,0.32,7.25,4.48,5.25,-0.14,1.16,1.02,8.01,0.3,-11.16,-0.15,0.5,-0.15,-1.89,-13.12,-7.67,0
-0.61,-0.66,-1.18,2.86,2.04,-8.91,-1.04,0.41,-0.63,2.15,-3.12,-7.26,0,-0.4,0,2.5,1.53,6.49,0
0.44,0.39,0.62,9.2,2.52,-5.49,0.76,0.26,-0.33,-5.17,2.25,9.83,0,0.35,0.45,-4.34,7.39,2.59,0
-1.21,-0.06,-0.58,9.69,-1.87,1.34,0.46,-0.49,1.17,-16.4,14.95,3.97,0,0.35,0,-0.43,-0.42,-3.27,0
-0.01,-0.36,0.32,5.79,-7.73,29.17,0.61,-0.34,0.12,-12.98,-1.17,-2.86,0.45,-0.1,-0.75,-9.22,8.37,-20.36,0
-0.46,-0.06,-2.08,-0.07,-3.33,-28.44,0.61,0.71,-0.18,6.06,2.25,-13.6,-0.6,-1.75,-0.45,-1.41,-1.4,15.28,0
-0.76,-0.36,-0.58,2.86,0.57,8.67,-0.14,0.41,1.02,3.62,-8.98,4.95,-0.15,0.8,-0.15,-13.13,10.81,3.08,0
0.44,-0.36,0.32,9.69,13.27,-7.93,-1.04,1.16,-0.63,5.57,-9.47,3,0.6,-0.25,0.9,6.41,-1.4,-16.46,0
-0.16,0.24,0.02,8.72,-0.89,2.32,-1.04,-1.54,-0.63,1.18,-5.07,-3.84,0.3,0.5,-0.15,5.92,2.02,6.98,0
-0.16,1.74,-0.73,5.79,-3.82,0.37,-0.14,-1.09,0.57,5.57,-10.44,3.97,-0.3,-1.15,0.75,1.52,0.56,-6.69,0
0.03,0.94,-0.87,0.64,-18.3,-34.94,-0.54,1.27,1,-8.39,13.25,-24.65,0.31,0.4,0.49,-20.97,9.75,41.02,0
-0.42,-0.26,-0.87,3.57,-8.05,-43.24,-1.14,-0.38,1.15,-2.53,-10.19,-6.58,1.06,-0.35,-0.56,8.82,3.4,23.93,0
-1.47,1.84,-0.57,1.62,26.13,125.71,0.36,0.52,0.55,-23.04,31.32,-95.45,-0.74,-0.65,-0.11,48.37,20.49,-59.08,0
-0.57,0.34,-1.47,0.16,5.14,40.75,-0.54,-0.53,-0.2,8.7,-15.56,-50.04,1.06,-0.05,-0.26,9.79,1.93,13.19,0
-1.02,-0.41,-1.47,-6.68,14.41,-12.96,-0.24,0.67,0.4,-2.53,11.3,7.58,-0.74,0.1,-0.41,-21.94,8.77,15.63,0
0.03,0.49,0.78,7.97,2.7,-17.36,-0.54,-0.23,-0.5,10.17,1.53,11,-0.29,-0.2,-1.16,2.96,-9.3,-13.18,0
-0.42,0.19,-0.87,2.6,6.6,26.1,-0.54,0.52,-0.5,-0.58,7.88,3.67,-0.44,-0.05,-1.31,13.21,6.82,-16.6,0
0.03,1.69,0.33,12.36,12.95,-50.56,0.66,0.22,-0.5,-22.06,4.95,28.09,0.16,-0.2,-1.01,1.01,3.89,30.77,0
-1.02,0.34,-0.27,19.2,4.65,-73.02,0.06,0.67,-1.1,-0.09,-23.37,58.85,-0.74,1.3,-0.11,-10.22,5.35,13.19,0
1.08,0.34,1.38,28.48,-2.19,90.55,0.36,0.22,1.3,-44.03,63.06,-165.27,-0.44,2.2,0.49,107.45,-21.99,-166.5,0
-0.57,1.09,-1.47,-14,2.21,-18.82,0.96,0.67,-0.05,17,-37.04,33.46,-1.34,0.7,-1.76,21.51,-22.97,-68.84,0
-0.42,0.49,-0.87,-0.82,-3.65,-33.96,0.51,-0.83,-1.1,-1.06,9.83,-5.12,-1.04,0.1,-0.71,-15.11,-7.34,40.04,0
-0.42,0.19,-1.62,21.15,4.16,-99.39,-0.54,0.52,-0.5,-10.34,-18.49,38.34,0.16,0.1,-0.41,-9.74,9.75,51.27,0
-1.47,2.29,-0.57,-38.42,-14.39,-48.61,-1.44,1.87,-1.1,-44.03,29.37,24.67,1.51,-0.35,1.24,113.31,12.68,-37.1,0
-1.77,1.09,-0.57,16.27,36.88,80.3,-1.44,0.67,1.6,25.3,8.86,33.46,0.31,-0.35,3.04,27.86,-6.37,-67.38,0
1.68,1.24,1.53,-0.82,27.6,33.91,3.21,0.22,3.7,1.87,-5.3,92.05,-0.44,2.2,3.49,24.44,-1.48,11.72,0
0.33,0.79,-1.47,13.34,72.52,113.01,3.36,-0.38,3.85,-31.83,45.97,-168.2,1.66,1.3,2.14,59.11,-48.36,3.42,0
-1.17,0.49,-1.17,1.13,-0.23,-13.45,1.41,-0.38,-0.35,2001.8,-1833.92,-1965.57,1.21,-0.65,0.34,2412.08,167.46,551.76,0
0.48,0.19,-0.87,-8.14,7.09,-14.43,0.06,1.57,-0.35,-5.46,-3.35,7.09,1.06,-0.05,-1.01,-8.76,4.37,2.93,0
-0.12,1.54,-1.02,1.62,10.02,27.56,0.36,-0.23,-0.2,5.77,2.02,-1.21,1.51,0.4,0.49,-2.41,4.86,5.38,0
-1.17,-0.56,0.03,-21.82,16.37,11.45,-0.69,-1.58,0.85,3.33,3.97,13.93,-0.29,0.1,-0.71,-6.81,9.26,7.82,0
-0.42,0.49,0.78,5.53,9.53,28.54,-0.09,-0.53,0.55,-3.99,14.72,-89.59,-0.74,-0.95,1.09,27.86,-7.83,-42.96,0
0.63,1.09,0.93,7.48,13.93,175.02,0.06,-0.38,-0.35,-14.25,-10.19,64.71,0.91,-0.2,-1.46,57.16,-33.22,-124.02,0
0.48,-0.26,-1.17,-11.07,8.07,12.91,-0.09,-0.98,0.55,-3.02,-31.67,49.08,1.51,0.7,1.24,-53.68,27.81,121.59,0
1.23,-0.26,-0.87,6.5,23.2,11.45,0.36,-0.23,-0.2,0.89,4.95,-146.23,-0.44,0.4,0.19,23.96,-7.34,-75.19,0
-0.12,0.34,0.48,1.13,-7.56,-0.76,-0.09,-0.98,-0.5,-2.04,-8.23,25.16,0.16,0.55,-0.11,0.52,-6.37,5.38,0
-0.42,0.49,-1.62,-1.8,5.14,-26.15,0.51,-0.38,-0.05,-3.99,6.9,-10.49,0.61,0.4,0.19,-18.04,14.14,26.37,0
-0.42,0.19,-0.87,1.62,1.72,56.37,0.06,-1.13,-0.35,-9.85,-1.4,4.65,0.91,0.55,-0.71,11.26,-1.48,-12.2,0
0.93,1.69,0.03,1.13,-2.19,27.56,0.96,-0.38,-0.35,2.84,-4.81,58.36,0.46,-0.2,0.34,-3.39,13.16,11.72,0
0.93,0.49,0.78,-12.05,-0.23,-94.02,0.36,-1.28,0.25,-6.44,6.9,-41.74,-1.04,0.1,-1.16,-22.43,17.07,62.5,0
0.03,1.24,0.33,3.57,24.67,147.68,-0.24,-0.08,-0.35,9.68,3.97,-102.29,2.11,-0.2,0.64,37.14,5.84,-93.75,0
0.33,0.79,-0.57,-18.4,4.65,9.5,-1.14,0.37,0.85,-3.02,9.83,15.88,-1.64,0.7,0.19,5.89,1.93,-26.36,0
0.33,2.74,0.18,3.57,3.18,-40.8,-0.54,0.52,-0.2,-14.74,3.49,10.51,-0.14,0.7,-0.26,-13.15,-4.41,15.63,0
0.03,0.49,0.03,-7.17,22.71,7.06,-0.09,-0.53,0.25,3.33,12.76,-54.92,1.51,0.4,0.49,7.84,-3.93,7.33,0
0.03,1.24,0.03,-5.7,-1.21,-9.06,-1.14,-0.38,0.85,1.38,-6.77,38.34,0.61,-0.35,0.94,13.7,-10.27,-13.67,0
-1.62,0.49,-1.62,10.9,-4.63,-15.89,-1.44,-0.08,-0.8,16.03,9.83,-62.73,0.31,0.4,0.94,5.4,8.77,-20.5,0
0.48,0.19,1.08,-27.68,19.3,135.96,0.66,-0.23,1,1.87,-11.65,6.6,0.31,0.4,0.49,30.79,5.84,-36.62,0
0.63,-0.41,-1.47,-8.63,-5.12,-28.1,-0.09,-1.28,0.55,-0.58,-1.4,20.27,-0.74,-0.2,-0.41,25.42,-14.18,-45.89,0
0.33,1.09,-0.27,5.04,5.62,-16.38,-1.29,0.52,0.55,-3.51,-0.91,-7.56,-0.44,-0.35,0.49,-16.08,1.93,14.65,0
0.33,0.79,0.18,-7.66,12.46,3.15,-1.14,-0.83,-1.1,-9.37,-2.86,-8.05,-0.89,0.4,0.19,2.47,-6.37,0,0
0.33,1.54,0.93,0.64,-2.19,-6.13,1.11,-0.23,-0.5,-10.83,5.93,11.97,1.06,1,0.19,2.47,-1.97,1.96,0
-0.12,-0.86,-0.57,11.39,7.09,21.7,1.11,0.97,-0.5,6.26,-1.88,-8.54,-0.44,1,0.19,1.01,1.45,-2.92,0
1.08,-0.11,0.18,-14.98,-0.23,-5.15,0.36,-0.23,-0.95,1.38,3.97,-6.58,-0.89,-0.05,-0.56,-12.67,6.33,17.58,0
0.48,0.94,-0.87,1.62,12.95,-2.71,-0.09,0.52,0.55,-9.85,-5.3,-5.12,-0.74,0.55,-0.41,15.17,-10.27,-32.22,0
1.08,-0.11,0.18,-3.26,-0.23,1.68,-1.44,-0.08,1.15,-0.58,-7.26,-4.14,0.46,-0.65,0.34,-14.62,-1.48,13.68,0
-1.62,0.94,0.33,-2.77,4.16,7.06,0.36,0.22,0.25,0.4,1.04,-11.46,0.31,-0.35,0.94,5.4,5.35,4.4,0
-0.42,0.49,0.33,1.13,5.62,-2.71,-0.84,1.27,1,8.7,-2.37,10.02,1.81,0.7,0.94,4.91,3.4,6.35,0
-0.42,1.24,-0.42,-5.7,-9.02,-8.57,-0.24,-0.83,0.85,3.33,-9.21,3.67,-0.29,-0.2,0.34,-8.76,1.45,33.7,0
-0.72,-0.56,-0.87,-5.21,6.6,20.73,0.66,0.52,-0.95,0.4,5.93,-9.51,-0.74,1.3,0.34,15.17,-5.39,-18.55,0
-1.17,1.69,0.03,10.41,4.16,-42.26,-0.54,-0.98,0.55,0.89,-0.91,18.32,0.16,-0.65,-1.16,-8.27,4.86,1.47,0
0.44,0.43,-0.08,5.59,-6.59,-10.22,0.02,-0.71,0.45,-9.64,-10.49,32.49,-0.96,0.94,0.25,-31.25,1.42,57.09,0
0.44,0.88,-1.58,3.15,-3.17,-37.57,-0.28,-0.11,-0.45,2.57,17.34,-123.76,-1.11,1.54,0.4,-19.53,7.28,55.63,0
-0.61,0.58,0.22,-9.06,32.47,268.1,0.17,-0.86,-0.9,13.8,-0.24,-108.13,-0.51,-0.11,-1.25,66.9,-21.04,-171.42,0
0.14,0.58,-0.23,-5.64,-1.71,5.89,-0.28,-0.41,0.3,-6.22,4.16,-23.66,-0.96,0.34,1,-11.23,6.3,49.77,0
-0.01,-0.02,-0.38,9.5,-20.26,-19.99,0.02,-0.26,-0.75,3.06,-6.1,8.08,-0.21,0.34,1.3,-14.16,3.37,13.15,0
0.14,0.58,-1.88,2.66,-9.03,-47.82,0.32,-0.26,0.45,-0.85,10.01,-28.54,0.54,-0.86,-0.5,0,-2.98,14.61,0
-0.61,1.03,-0.68,-6.62,-1.71,-9.74,-0.28,-0.86,0.6,5.99,1.71,-9.01,0.39,0.79,-1.1,2.45,-10.79,3.38,0
-0.61,0.28,-0.68,6.57,-4.15,-50.75,-0.43,-0.26,0.45,3.54,2.2,7.1,-0.21,-0.11,0.55,-22.46,-1.03,55.63,0
-0.31,-0.17,-0.23,3.64,1.71,13.7,0.02,-0.71,0,-5.73,15.39,-120.34,1.14,-0.26,-0.65,-3.9,-2.98,-14.68,0
0.59,0.58,-0.68,-8.57,34.42,252.96,1.22,0.79,-0.75,2.57,-13.91,-33.92,-0.81,0.04,-0.35,69.34,3.86,-142.12,0
-0.46,0.43,-0.83,-3.69,-8.06,8.82,-0.28,0.64,0.3,2.57,38.82,-39.78,-0.96,0.94,-0.5,-6.34,-2.98,7.29,0
-0.01,1.18,-0.83,-10.52,-0.73,-1.44,1.67,0.04,-0.3,-10.62,8.55,-38.31,-0.81,1.24,-0.05,0,1.9,17.54,0
0.44,1.63,-1.58,19.75,-4.15,15.17,0.62,-0.11,-0.15,-5.24,57.38,-128.64,0.09,-0.71,-1.1,15.14,-9.81,-45.93,0
-0.91,0.88,-1.58,21.22,10.01,5.4,-0.43,0.04,0.45,1.1,29.06,-25.62,2.34,0.04,0.4,59.09,-13.23,-9.8,0
-0.46,1.18,-0.08,-1.73,17.82,18.58,1.22,-0.71,0.9,-4.76,14.9,24.19,0.84,1.24,3.4,-8.78,0.93,51.24,0
-0.61,1.03,-0.68,-5.64,31.01,55.69,3.02,0.34,1.35,-8.66,36.87,-3.15,-0.36,0.04,2.95,-7.32,-10.79,24.38,0
-1.06,0.58,-1.43,267.8,-97.9,80.6,2.27,-0.41,4.05,-66.77,59.33,234.15,0.39,0.04,1.45,55.67,-22.51,-42.03,0
0.74,0.88,-0.38,-3.2,-5.62,1.98,0.32,-0.26,0.45,-10.62,0.25,34.44,-0.81,-0.71,-0.35,532.72,-6.88,124.97,0
1.04,0.58,0.52,-1.73,9.03,-0.46,0.17,-0.86,-1.2,-3.29,-5.12,13.94,-0.51,-0.11,1.3,-0.48,-1.03,-19.57,0
1.04,1.03,0.52,5.59,-10.01,1.49,0.62,-0.86,0.3,2.57,3.18,2.22,0.99,-0.41,-0.5,-1.95,0.93,-10.29,0
0.59,0.28,-0.23,-0.27,2.2,26.4,1.37,-1.61,-0.15,-3.29,-9.52,-2.67,0.84,0.04,-1.1,17.58,-6.4,-19.08,0
-0.31,1.78,-0.98,-0.27,-3.17,78.15,1.37,-0.86,0.6,10.87,17.34,-30.5,0.39,0.79,0.7,-13.67,-3.96,16.08,0
0.44,-0.77,0.37,-31.52,-18.8,-211.4,-0.28,-0.11,0.3,11.36,25.15,-155.5,-0.21,-0.11,0.55,-82.03,12.65,108.85,0
0.74,1.18,-1.58,4.13,14.89,-14.62,1.67,0.04,0.9,5.99,-0.24,20.77,0.99,-0.86,0.25,1.96,-2.98,8.27,0
1.19,1.63,1.12,-9.06,4.15,17.61,0.32,0.04,-0.3,-8.17,-0.24,10.52,-0.51,-0.41,-0.2,0.49,-1.51,-15.66,0
0.44,1.18,0.37,-7.59,-2.69,7.84,-1.03,0.34,-1.65,4.03,-6.1,-9.5,-0.36,0.49,0.7,-4.88,-5.42,11.68,0
-0.46,1.63,0.37,-0.27,0.24,1.49,-0.28,-0.11,-0.15,-0.85,-4.15,-3.15,0.39,-1.01,1.15,-6.34,-3.47,23.4,0
-0.31,0.58,0.97,9.01,-10.01,-11.2,0.17,-0.86,0.3,-13.54,6.11,19.8,0.84,0.49,0.4,-18.55,4.83,19.01,0
0.59,0.28,-0.98,5.59,-3.17,-25.36,0.17,1.39,-0.9,-12.57,-19.77,30.54,-0.96,1.69,0.25,-9.76,11.67,42.93,0
0.44,-0.32,-0.38,8.03,-13.92,7.35,-0.28,-1.16,0.3,4.03,4.64,7.1,-0.21,0.34,-1.25,-6.34,-1.03,-14.19,0
0.74,0.43,-0.08,10.96,4.64,-25.85,0.02,-0.26,-0.75,-0.85,13.92,-20.24,2.19,0.94,1.6,-15.13,-0.54,19.01,0
1.34,1.33,0.52,13.89,2.69,-6.81,-0.88,-1.01,-0.75,-0.36,1.23,19.8,0.84,0.04,-0.35,-2.92,-10.3,-16.15,0
0.59,-0.47,0.22,7.06,14.89,-2.41,0.02,-1.46,0,-4.76,-1.22,-5.11,-1.56,0.49,0.4,11.72,5.32,-21.03,0
0.59,0.58,1.27,2.17,9.52,-18.04,1.37,-1.16,0.3,2.57,-0.73,-22.2,-0.81,-0.71,-0.65,-19.04,2.39,6.8,0
-0.61,0.28,-0.98,2.66,-4.64,-52.71,-0.88,0.79,1.65,3.54,1.71,-27.57,0.99,0.94,0.25,-8.3,-11.77,10.71,0
0.44,-0.32,-0.38,-1.73,-0.24,-56.12,0.17,-0.41,-0.45,3.06,-23.19,102.8,0.54,-1.61,0.55,4.89,-3.47,-48.37,0
-0.01,1.63,-0.38,13.4,8.06,-1.92,-0.58,-0.11,-0.15,8.43,-12.93,2.22,0.54,-0.41,-0.5,7.82,1.9,-0.52,0
-0.31,1.03,-0.98,-8.57,-0.73,-2.41,0.77,0.04,0,-15.99,8.55,-10.97,-0.96,-0.11,-0.2,7.33,-0.05,-0.52,0
0.59,0.58,-0.23,16.82,-9.52,-1.44,0.32,-1.01,0.9,0.62,-0.73,12.47,-0.96,1.39,-1.7,-3.41,-7.37,6.31,0
0.14,0.58,-0.23,-1.73,0.73,-9.25,0.17,0.34,-1.2,0.13,-11.96,-3.15,0.09,-0.26,1.15,-5.85,4.35,5.83,0
0.59,1.03,0.52,1.68,-4.64,9.79,0.32,-1.01,0.9,2.08,7.57,-28.54,-2.31,0.04,-0.35,-1.46,2.39,16.57,0
-0.46,1.18,-0.38,-7.59,-5.13,-22.92,-0.88,0.49,0,-12.08,-3.17,50.56,-0.21,-0.86,1,-5.37,-7.37,2.9,0
1.04,-0.17,-0.98,7.06,8.54,3.45,0.92,-0.11,-0.15,17.71,0.74,-9.01,-0.21,-0.41,-0.95,-25.39,-8.35,9.73,0
-0.01,0.43,-0.38,6.57,-4.15,-0.46,-0.28,-0.41,0.3,1.1,-7.08,-5.6,-0.51,0.64,-0.95,3.91,-3.96,-0.52,0
0.74,-0.32,-0.08,3.15,0.24,1.98,-0.58,-0.11,1.35,8.92,1.23,-9.01,-1.11,-0.26,1.15,-8.3,1.42,5.34,0
0.74,0.88,0.67,1.68,12.45,10.28,0.77,0.04,0,-4.76,-10,-9.5,0.39,0.49,-0.35,-9.27,-0.05,2.9,0
0.59,1.33,-0.68,-0.27,5.13,-7.78,0.92,0.64,-0.45,-2.31,-1.22,-2.67,0.39,-0.26,0.4,0,-4.44,8.27,0
-0.01,1.18,0.37,8.03,10.01,14.19,-0.43,-0.71,-0.75,-13.06,3.18,4.66,0.24,0.64,2.05,24.91,-0.05,-8.33,0
0.14,1.33,0.22,9.99,-1.71,-11.2,0.62,-0.41,-0.15,-5.73,2.2,15.4,0.84,0.49,-0.65,-7.32,-9.33,3.38,0
-0.01,0.43,0.37,-6.13,-5.13,4.91,0.32,-0.26,0,6.96,13.43,1.24,0.24,0.94,1,2.45,0.93,-6.38,0
