MagX1,MagY1,MagZ1,AccX1,AccY1,AccZ1,MagX2,MagY2,MagZ2,AccX2,AccY2,AccZ2,MagX3,MagY3,MagZ3,AccX3,AccY3,AccZ3,Class
1.08,0.01,0.23,-6.79,7.83,22.92,-0.29,0.73,-0.93,7.78,3.26,-10.25,0.35,1.45,0.71,1.61,-6.25,-10.72,2
0.18,0.01,-0.97,-7.28,-10.24,-37.62,-0.59,-0.77,-0.18,5.34,-2.6,-19.53,-0.1,0.1,0.71,-14.99,1.07,26.88,2
0.03,1.51,0.38,-5.81,1.97,-17.11,-0.29,-0.47,-0.48,-10.28,0.33,79.1,-0.25,-0.2,0.41,8.45,5.95,42.5,2
-1.47,-0.29,0.23,-8.74,-5.84,-110.38,-1.19,0.88,0.87,21.45,-10.41,24.9,0.05,-0.5,-0.64,-25.24,1.56,17.11,2
-0.57,-0.74,-1.42,-27.78,-19.03,137.67,-0.44,-0.32,-0.33,8.76,-49.47,508.3,-0.1,0.7,-1.24,79.25,-9.18,-64.43,2
-0.42,0.61,0.38,-324.17,108.42,-1182.64,-2.24,1.48,-0.18,132.78,-102.7,596.68,0.5,1.3,0.11,-247.41,128.51,567.89,2
-0.42,1.06,0.38,3.47,19.06,14.14,-1.49,1.03,-0.18,2.9,34.02,-42.97,-0.4,0.7,1.31,-30.13,12.79,26.88,2
1.53,1.21,-0.22,0.54,-1.94,30.74,-1.04,1.03,2.07,-30.79,29.14,8.79,-0.4,1.45,0.71,-47.22,38.18,76.19,2
1.08,0.91,-0.22,16.16,32.73,87.87,-0.29,0.28,2.52,22.92,21.81,-52.24,0.05,2.05,1.16,-13.52,6.93,-11.7,2
0.03,1.81,0.83,12.25,22.48,-15.16,-1.04,0.28,2.07,22.43,8.14,2.93,-1.3,1.45,1.76,16.75,15.72,79.61,2
-2.22,0.91,1.43,13.72,42.01,-110.38,-0.89,1.33,1.92,-50.32,22.3,-171.87,-0.1,3.4,1.31,-56.98,67.48,235.86,2
-0.27,0.01,3.83,121.63,429.22,-92.8,-1.64,0.43,4.17,-17.12,-191.56,930.18,-1.45,3.55,1.61,284.82,-127.84,-442.85,2
1.08,-0.29,3.83,2.49,1.48,-7.84,-1.49,1.78,3.72,22.43,-19.2,45.9,-0.25,3.55,0.86,-10.59,4.49,15.65,2
2.73,-0.29,3.83,10.3,4.41,-101.1,-1.19,2.08,4.62,-1.5,6.68,14.16,0.95,2.8,1.16,-18.9,14.74,64.48,2
2.13,0.31,2.78,1.02,15.15,37.08,0.76,2.38,4.17,15.59,23.28,-168.94,0.95,2.8,1.61,33.35,-18.46,-92.75,2
2.13,-1.34,1.28,84.52,1.97,-277.37,1.36,2.23,2.07,-38.61,-57.29,222.66,2.15,1.75,0.11,-21.83,23.04,25.41,2
1.83,0.91,2.18,40.57,-16.58,-69.36,0.91,1.03,1.32,-64.48,129.24,-385.74,1.55,1.15,1.01,257.96,5.95,-263.16,2
-0.57,-0.74,1.73,3.47,27.85,1.93,-0.29,1.48,1.02,-43.49,57.46,54.69,0.65,0.7,-0.04,-50.15,4.49,46.9,2
-0.87,-0.44,2.03,24.95,13.2,-62.04,-1.49,0.73,-0.18,52.7,-80.72,169.92,1.1,0.4,0.71,-64.31,55.27,166.04,2
-2.67,-2.69,1.43,-26.32,3.92,289.04,0.61,-0.02,1.32,-99.64,14.49,146.49,0.95,-0.5,0.86,14.8,-20.9,-101.54,2
-2.67,0.46,1.73,83.06,180.68,255.83,-0.89,-0.32,0.42,-1.98,-155.92,7.81,0.05,0.25,0.41,211.57,-3.81,-40.02,2
-1.92,0.91,0.98,34.72,429.22,461.89,-1.19,-1.82,1.17,139.13,-131.02,-680.66,1.1,1.15,0.71,-607.76,202.73,1071.74,2
-1.17,-0.89,-1.12,5.42,4.9,-18.09,-0.59,-0.47,-0.18,3.88,8.14,-26.85,0.05,-1.55,0.11,-20.85,18.65,14.67,2
-1.02,0.01,-1.42,3.47,-5.35,15.6,0.61,-1.22,-0.18,-1.98,-3.09,-5.37,1.25,1,-0.94,19.68,-8.21,-14.63,2
0.48,-0.44,-0.82,3.47,-8.28,-16.14,0.31,-0.32,-0.78,14.13,-2.6,-7.81,-0.1,0.1,0.71,-31.1,14.74,29.81,2
0.03,0.31,0.38,7.86,-0.96,17.07,0.01,-0.32,-0.03,-1.01,0.33,-27.34,0.35,-0.65,0.26,4.05,12.79,-9.25,2
0.03,0.61,0.38,0.05,-9.26,-14.67,-0.89,0.43,-1.08,6.32,-9.44,9.77,-1.3,-0.65,-0.49,-8.64,-0.39,-8.28,2
-0.42,-0.14,0.08,-0.93,-14.63,2.91,0.16,0.28,-0.18,-6.87,7.65,-3.42,-0.1,-1.4,0.26,-17.43,-6.25,19.07,2
-0.42,-0.89,0.38,5.42,-5.35,15.11,-0.44,-0.32,-0.33,5.83,1.8,-21.48,0.5,0.55,0.86,7.96,7.91,-9.74,2
0.18,-0.29,0.68,18.11,-7.31,8.76,0.91,0.73,0.27,-0.03,-6.51,7.33,0.65,-0.35,1.01,-1.81,5.47,8.81,2
0.48,-0.14,-0.82,-7.77,-5.84,-11.26,0.16,0.28,-0.93,-8.82,6.19,-2.93,0.05,-0.2,-0.64,-8.15,4.98,19.07,2
0.63,-0.29,-0.52,-10.69,10.27,0.95,-0.89,0.43,-0.03,7.29,-4.06,-9.76,0.35,-0.65,-0.49,-4.74,-3.81,-11.7,2
-1.17,1.51,0.38,8.84,1.97,6.32,-1.19,1.33,0.87,9.73,-0.65,14.65,-0.1,-1.1,-1.54,-0.83,0.58,2.95,2
0.78,0.61,-1.57,10.3,-4.86,-15.65,-1.49,0.28,-0.48,14.62,-2.6,2.93,1.55,-0.65,-0.49,-6.2,1.56,8.32,2
-0.87,0.31,-0.37,0.05,-5.84,5.83,-0.59,-0.02,-0.18,-12.73,-0.16,-12.21,-0.4,0.1,1.01,-3.76,9.86,13.21,2
0.48,0.31,0.08,4.93,2.95,-1,-0.89,0.13,1.17,-4.43,4.72,-7.81,-0.25,0.25,-0.64,-9.13,-2.35,1,2
1.53,0.01,0.23,-6.79,5.39,-4.42,-0.44,-1.37,0.87,-6.38,4.24,0,-0.4,-1.1,1.01,7.47,5.47,-0.47,2
-1.02,0.46,0.98,0.54,-0.96,-12.72,-1.04,0.28,-0.18,3.39,-0.65,-0.49,-0.1,-0.65,1.01,-14.99,13.28,10.28,2
0.18,0.01,0.23,-7.28,9.3,10.23,-0.59,0.28,1.32,5.83,7.65,-8.79,-0.7,0.55,-0.64,0.64,-3.81,-4.37,2
-0.87,0.61,0.38,1.02,-5.84,-9.3,-0.44,-0.62,0.42,-1.01,-4.55,12.21,-0.7,-1.25,1.16,7.96,4.49,7.84,2
1.08,-0.29,-0.22,1.51,-2.42,5.83,-0.44,0.13,-1.08,-7.36,13.51,-6.35,0.35,-0.65,-0.49,10.4,4,8.32,2
-0.42,0.31,0.08,-7.28,10.27,-1,0.01,-0.32,-0.33,-9.8,3.75,-4.88,-0.25,0.25,0.41,-0.34,1.56,-3.39,2
0.03,-0.44,-0.82,-13.14,-3.4,-13.21,0.16,0.28,0.57,-3.45,-1.62,6.35,0.35,-1.4,-0.04,-9.62,8.4,11.25,2
0.03,0.61,-0.82,3.95,-9.75,-13.21,0.16,-1.22,-0.18,9.25,-5.04,3.91,-0.4,-0.35,-0.79,-14.5,1.56,-8.28,2
1.53,0.01,-0.22,1.02,0.02,1.44,0.61,-1.52,-0.48,5.83,-5.53,15.63,-0.85,0.7,0.26,3.08,-3.32,-11.7,2
-0.87,-0.14,0.08,-3.86,-15.12,-3.93,-0.44,0.43,-0.78,-1.5,-4.06,5.37,0.05,-0.2,1.16,1.12,14.25,-7.79,2
0.78,-0.14,0.08,-0.44,-0.96,-5.88,0.01,-0.32,-0.33,-3.45,5.7,-2.93,0.65,1.15,-0.79,2.59,-0.39,-4.86,2
0.78,-0.14,0.83,-5.32,-4.38,-4.42,0.16,1.48,-0.48,-3.45,11.56,-7.32,1.7,-0.2,-0.94,-1.32,4.98,-8.77,2
-0.27,-1.04,-0.52,10.79,7.34,-4.91,-0.89,-0.62,-0.33,-4.43,-5.53,21,-0.25,1,0.11,2.59,-7.72,-6.32,2
-0.42,-0.89,-1.57,-8.25,-3.89,3.39,-0.29,-0.02,1.32,3.39,-10.41,-16.6,0.35,0.1,-0.49,-6.2,-0.39,-3.39,2
0.37,1.03,-0.25,4.08,6.76,34.59,0.23,0.77,-0.26,-6.26,2.04,41.75,1.11,1.81,-2.14,42.76,-26.11,-68.89,2
-1.73,0.73,-0.55,-4.71,-2.52,-25.96,-0.22,0.02,-0.56,-18.96,-27.25,87.16,-0.24,0.46,-0.79,8.58,8.06,-0.05,2
-0.08,-0.17,-0.25,-2.76,4.8,-33.77,-0.52,-0.73,0.19,12.78,23.53,-130.61,-0.09,-0.44,-0.19,-42.2,21.74,64.41,2
-0.38,0.28,-1,17.75,26.29,153.73,0.68,-0.43,-0.26,-21.4,12.78,47.12,-0.69,-0.59,-0.49,62.78,-26.11,-94.77,2
0.82,0.28,-1,25.07,-26.45,-625.57,0.83,0.17,-0.41,35.24,-74.13,115.97,-0.09,0.01,0.11,-382.05,115.97,482.37,2
-3.08,1.63,-0.85,-39.87,35.56,-386.31,-0.52,-1.93,-0.56,38.66,109.46,-168.21,-0.24,-0.29,0.71,-142.79,-55.41,-91.84,2
-3.08,2.08,-1.15,15.31,15.55,-22.06,-2.47,-2.08,-1.16,8.88,0.09,27.59,0.96,-0.59,1.01,3.21,-10,-33.25,2
-5.78,2.23,-3.7,-10.57,17.99,-22.54,-1.57,-2.08,-0.41,11.32,9.86,-7.57,0.51,0.16,1.01,38.85,-12.93,31.2,2
-2.93,2.98,-4.6,-16.92,43.38,108.32,-0.22,-1.93,-1.46,13.76,1.55,78.86,1.56,0.31,1.61,-43.18,35.41,29.74,2
-1.43,0.88,-2.35,-7.64,24.82,-51.84,1.43,-1.48,-0.56,-3.33,45.5,-25.63,0.66,0.61,1.16,-68.57,23.69,27.3,2
0.97,0.43,-1.6,-15.94,74.63,381.75,0.83,0.17,1.09,175.87,-39.95,-428.95,0.06,-0.59,0.26,-144.74,113.05,-81.59,2
0.67,0.13,4.4,5.54,-11.8,-27.43,-2.47,0.47,2.29,-9.68,1.55,17.34,-0.09,1.36,0.11,-44.16,17.83,78.57,2
-0.68,-1.82,3.2,0.17,5.78,27.75,-0.82,0.17,3.04,-14.56,9.37,-73.97,-0.09,2.11,0.11,16.39,-11.47,-48.88,2
-2.33,-1.52,2.3,-13.01,23.85,79.02,-2.62,-0.73,2.44,8.39,-1.86,-15.87,0.96,0.91,-0.04,32.5,-20.26,-92.82,2
-2.33,-1.52,1.25,51.93,-52.81,-351.65,-1.72,-1.48,1.24,-10.66,-47.27,-54.44,-0.99,0.46,0.26,-110.07,28.08,30.23,2
-1.88,-0.62,-1.15,80.74,-15.22,-94.32,-0.97,-1.93,0.49,-90.73,33.29,-214.6,-0.24,0.16,1.76,105.75,-46.62,-314.5,2
-4.58,-3.17,-4.9,31.91,-1.54,-56.24,-2.77,-1.33,-0.41,12.78,-10.65,-24.17,-0.24,-0.59,2.21,71.08,-25.14,2.88,2
-2.03,-5.12,-5.65,-24.24,93.67,106.36,-0.52,-1.48,-0.56,-50.21,36.71,-50.53,0.36,-0.44,1.91,-48.55,-23.67,-67.92,2
0.82,-2.87,-6.1,3.1,-30.84,-97.25,-0.97,-2.23,-0.26,-8.21,-6.75,120.85,-2.04,0.31,0.56,-186.25,-12.93,248,2
3.82,-3.17,-2.95,232.1,49.24,-196.37,-0.52,-1.48,-0.56,-59.97,8.88,301.03,0.06,0.91,0.71,-17.79,-52.48,21.44,2
0.67,-0.62,-2.8,7.01,5.29,19.94,-1.12,-1.33,-1.91,-25.79,-381.75,1019.72,-0.69,-0.29,0.71,-1043.18,287.36,1071.67,2
-1.43,-0.32,-1.6,13.35,11.15,9.68,-0.97,-0.43,0.49,-26.77,17.18,-86.18,-0.39,-1.49,-0.19,3.21,12.95,-6.39,2
-0.68,0.43,0.35,-1.3,-3.01,-17.17,0.23,0.02,-0.56,-6.26,-11.63,4.64,-0.39,0.31,-0.64,-13.39,-1.7,9.72,2
-0.08,-0.92,-0.25,-2.27,-1.06,23.35,-1.12,0.17,-0.41,-7.24,-3.82,-1.71,-1.44,0.16,-0.04,14.93,-7.07,-17.14,2
-1.43,0.43,0.05,12.38,-3.01,-21.08,-0.22,0.32,0.94,-10.17,3.02,34.92,-0.39,0.01,-1.39,2.23,7.09,11.67,2
-0.98,-0.32,-1.15,9.93,-1.06,7.24,-0.37,-1.03,-1.16,11.81,4,-25.14,-0.69,-0.29,-0.04,-12.42,7.58,12.65,2
-0.68,0.13,0.05,-12.04,-2.52,16.52,-1.12,0.17,-1.16,-0.4,-3.82,5.13,0.96,-0.29,-0.04,5.16,-10,-10.3,2
-0.38,0.28,-0.55,-1.78,0.9,-10.83,-0.22,2.27,0.19,1.06,8.39,-8.54,0.06,-0.29,-0.64,-7.05,3.67,26.81,2
-0.38,-0.17,-0.55,6.03,8.71,16.52,-0.37,0.92,-0.41,-13.59,-4.31,-4.64,0.66,0.01,0.56,2.72,-3.17,-22.02,2
-0.38,-0.92,-1,7.01,-7.89,-27.92,0.23,0.02,0.19,-0.89,-2.35,2.2,-0.99,0.16,0.26,-12.91,1.72,35.11,2
-0.38,-0.47,0.65,-11.06,13.59,15.05,0.68,0.32,-0.56,6.92,1.55,-6.1,0.96,1.21,0.26,3.21,4.16,-14.7,2
-0.83,0.28,0.65,2.61,-6.92,7.24,0.38,-0.58,-1.16,9.85,-13.58,10.01,1.11,0.01,-0.19,-2.65,-1.21,-10.79,2
-0.23,-0.32,0.8,-14.97,1.87,4.8,1.43,0.02,0.19,18.64,10.34,-12.94,0.51,-1.34,-0.04,-13.39,-10.49,-3.46,2
0.22,-0.32,0.05,6.03,1.87,-5.45,-0.37,0.47,-0.86,-2.36,0.58,-5.61,-0.69,-0.59,0.71,4.67,9.04,-16.65,2
-0.68,-0.62,0.05,11.4,-5.94,6.75,0.68,-0.43,-0.56,1.55,3.51,19.29,-1.59,1.81,0.56,1.25,-3.65,-13.72,2
0.37,0.28,-1,11.4,0.9,-3.99,-0.52,0.32,0.19,-13.1,1.55,5.13,0.51,-1.34,0.26,7.11,3.18,-21.53,2
-0.08,0.28,0.95,1.15,9.69,-2.52,0.83,0.92,0.34,7.41,1.07,-15.87,0.36,-1.49,0.86,1.25,12.95,-3.95,2
-0.83,-0.47,-0.25,3.1,8.71,6.75,-0.82,0.17,-0.86,-5.28,1.07,6.6,0.06,0.16,1.01,4.67,-2.19,-7.86,2
0.22,-0.62,-0.4,7.49,-10.82,-4.97,0.23,0.02,0.94,-8.21,4.48,5.13,0.51,0.46,-0.49,5.16,15.39,8.74,2
-1.43,0.13,-0.85,-10.08,-2.52,-1.55,-0.22,0.32,0.49,-6.75,0.58,2.2,0.36,0.01,0.11,19.32,0.74,-10.79,2
-1.28,0.28,-0.55,5.54,1.87,7.73,-0.82,-0.58,-0.86,4.97,-2.35,-4.15,0.36,0.01,1.16,3.7,-1.7,-13.23,2
0.37,-0.47,0.2,7.01,3.83,-8.38,-0.52,-1.18,0.49,9.36,-4.31,-1.22,-0.39,0.61,1.16,8.09,-7.07,0.44,2
-0.83,-0.17,-0.55,-7.64,9.69,-9.36,-0.52,-0.43,0.49,4.97,8.39,3.18,-0.39,0.01,-0.94,1.25,-6.1,3.86,2
-0.23,-0.32,0.05,5.54,-1.54,-3.99,1.73,0.17,-0.11,3.02,10.83,0.25,-0.69,0.91,-0.04,6.63,-1.7,-18.6,2
0.67,-0.62,0.8,8.96,-5.45,1.87,-0.97,0.32,1.24,-9.19,4.97,-13.42,0.96,0.46,-0.04,2.23,3.18,5.32,2
-0.68,-0.32,-0.85,0.66,0.9,11.64,-0.97,0.77,-1.01,-3.33,5.95,5.62,0.06,-0.29,-0.49,8.09,-3.17,-7.86,2
-0.38,-1.22,-1,-2.27,5.29,0.41,0.08,0.47,0.34,5.95,1.07,1.71,0.06,0.91,0.26,-1.68,10.51,26.81,2
-0.38,-0.17,-1,-4.23,0.9,3.33,0.08,0.47,0.34,-8.7,6.44,-2.19,0.06,-0.29,1.01,6.14,-3.17,-14.21,2
-0.83,-0.17,0.2,3.59,-2.03,-1.55,0.38,-1.03,1.54,-7.24,-13.58,20.27,-0.39,0.61,0.56,-9.98,5.62,-1.02,2
-1.43,-0.32,0.35,8.96,-8.87,-2.52,0.83,-0.58,0.34,-3.82,8.39,-1.71,-0.39,1.36,0.56,-7.05,1.72,-8.84,2
-1.04,-0.59,0.12,2.37,-6.78,-28.3,-0.88,-0.32,-0.85,-4.28,2.81,9.31,-0.86,0.85,0.64,-4.28,1.7,14.21,2
-0.59,-0.29,0.12,10.18,-5.8,-20,0.77,0.88,-1.9,-20.88,11.11,30.3,0.19,-0.05,-0.26,-14.05,19.28,102.59,2
0.91,-0.14,-0.93,-21.56,-32.66,48.84,-1.03,-0.02,-1.45,-29.67,82.89,-246.55,-1.01,-0.05,-0.71,-16.49,40.27,127.01,2
-1.04,0.16,-1.08,-112.38,-104.93,-115.71,0.32,0.13,-1.6,72.38,-146.11,676.3,0.34,-1.4,-0.11,-59.94,29.53,90.87,2
-0.14,1.36,-3.48,101,48.88,-18.54,0.17,2.53,-5.2,0.12,-132.44,977.57,-0.11,-0.95,-0.86,-329.48,167.23,835.99,2
-0.74,2.26,-2.13,-3,13.24,-16.1,0.62,3.28,-9.4,-10.63,14.04,34.7,-0.26,-2.6,0.49,-22.35,9.51,29.84,2
-3.29,3.46,0.27,17.99,18.12,45.91,-1.48,2.23,-14.35,5.97,24.3,31.28,-2.36,-2.15,3.49,2.07,-5.63,-44.87,2
-2.09,3.76,0.27,17.5,-6.78,-122.54,-3.13,-1.97,-15.85,-17.46,39.43,37.63,-1.61,-2.45,5.44,9.88,17.32,96.25,2
-3.29,3.01,-0.48,46.31,22.03,-93.25,-5.83,-3.02,-8.95,26.97,41.87,-61.01,-2.21,-2,4.09,5,5.61,-6.78,2
-4.49,1.51,1.02,-25.95,206.6,-168.44,-5.08,-3.02,-6.7,-99.49,158.57,52.76,-1.76,0.55,6.34,65.06,-27.11,76.71,2
-3.14,-0.59,2.07,-6.42,-8.25,20.52,-2.53,-4.07,1.85,-531.13,495,-2588.35,-1.61,1.15,1.69,-1586.8,1000.72,1073.23,2
-1.19,-1.19,1.77,5.79,-3.85,-86.41,-0.88,-1.37,4.1,-17.46,-21.6,85.97,0.79,3.4,3.49,-20.88,9.02,28.37,2
-0.59,-1.49,2.37,3.83,-29.73,-102.52,0.62,-1.22,3.2,-34.55,105.35,-322.72,0.79,1.15,2.14,-59.94,12.44,104.55,2
1.66,-1.64,1.02,-62.57,-41.94,-4.38,0.77,-0.32,1.85,-9.16,16.48,244.66,0.79,2.2,0.64,-6.23,60.78,336.48,2
0.31,0.46,1.62,-424.88,247.13,552.75,0.92,0.28,-0.25,43.57,12.09,95.24,0.79,1.9,1.39,-585.82,276.11,1073.23,2
0.46,0.76,0.27,39.48,-4.34,-146.96,0.02,0.43,0.35,-2.81,40.9,22,-0.86,0.4,1.69,-50.67,20.74,36.19,2
0.91,0.76,1.02,5.3,17.15,-131.33,0.17,-0.77,1.7,95.82,-39.18,-128.39,1.39,1.3,4.54,29.9,2.19,158.26,2
1.06,-0.29,1.32,5.79,27.4,-147.93,0.32,-1.07,2.3,119.74,-133.91,257.35,-0.26,0.55,4.09,143.18,-18.32,-144.97,2
-0.74,-0.14,-0.18,-178.3,117.73,-8.29,-0.88,-0.62,0.35,25.02,-66.04,479.03,1.54,-0.95,2.89,-3.79,-6.11,46.93,2
-0.74,-0.44,1.47,80.49,4.94,-23.91,-1.63,-1.07,-0.4,-163.95,-396.11,1019.01,0.19,-0.8,1.09,759.39,-175.55,-1944.28,2
-0.14,1.36,1.32,-8.86,-9.71,13.2,-0.88,-1.07,-0.1,-7.7,-1.58,-37.08,-0.56,0.25,1.09,10.37,-8.55,5.91,2
0.31,-1.04,0.12,6.27,1.03,-4.38,0.32,0.43,-0.85,-10.14,-1.1,18.58,0.19,0.55,0.04,9.88,-2.21,-6.29,2
1.06,0.16,1.32,-8.37,2.5,8.8,0.77,-1.07,0.8,-4.77,3.79,19.07,-0.56,0.55,-1.01,26.48,1.21,-19.48,2
-0.59,-0.59,1.32,-3.98,-7.76,-5.84,-0.43,-0.32,-0.1,2.07,8.18,-24.38,-0.26,0.25,-1.01,5.97,-1.72,5.91,2
-0.44,-0.14,-0.18,5.79,-0.43,0.99,0.02,-0.32,0.8,-7.21,-6.47,-0.46,0.19,-0.05,-0.71,-1.84,11.46,10.31,2
0.61,0.16,0.12,15.06,-9.71,1.48,0.77,1.33,-0.85,-0.86,8.67,1.49,0.34,-0.65,-0.56,-16.49,4.14,-11.18,2
-0.74,-0.89,-0.93,-4.96,-8.25,-4.87,0.32,0.13,-0.4,-18.44,-0.61,-14.62,0.19,-0.5,-0.26,-7.7,7.07,9.82,2
-0.14,0.16,0.12,12.13,-3.85,-8.77,0.02,0.13,-0.1,2.07,-6.47,4.42,-0.56,0.55,0.49,3.04,-6.6,11.28,2
0.31,-0.59,-1.08,-3,-4.83,7.34,0.77,0.88,1.1,9.39,13.06,-10.22,-0.56,-0.5,-0.26,-5.74,-0.74,-12.64,2
1.51,0.16,-0.33,-2.03,9.82,8.8,-0.43,-0.62,-0.85,2.07,11.11,-4.85,-2.06,0.4,0.64,14.76,1.7,-19.48,2
0.01,-0.44,-0.48,-10.82,4.45,0.5,0.17,-0.02,0.2,1.58,-11.35,-28.29,0.94,-0.8,-0.71,-2.82,17.32,16.17,2
0.46,-0.14,-0.48,3.34,0.06,0.99,-0.58,1.03,0.2,15.25,-3.54,-1.92,0.49,-0.5,-0.26,13.79,1.7,1.52,2
-0.44,-1.64,0.27,10.18,15.19,-1.45,0.77,-0.32,-0.4,-1.35,11.6,-14.62,-0.26,0.55,0.79,0.11,-0.74,-5.32,2
0.46,-0.44,-0.48,-11.79,-4.83,-2.91,-0.28,0.28,-0.25,-5.26,-2.56,20.54,-0.41,-0.95,-0.11,-4.28,-7.58,11.28,2
0.61,-0.29,-0.78,0.42,1.52,-0.96,-0.28,-0.47,0.5,-6.23,0.86,-13.15,1.09,0.85,-0.56,8.42,0.23,0.54,2
-1.04,-0.29,-0.78,-2.03,-0.92,3.92,1.22,1.63,-1.15,14.76,-1.58,13.21,0.34,0.4,0.64,0.11,-2.21,2.98,2
0.01,0.31,0.72,3.83,11.77,2.95,0.32,0.13,-0.1,0.6,-1.58,-2.9,0.19,-0.05,0.49,5.97,-2.7,2.5,2
0.01,-0.44,1.02,2.86,-3.36,-5.84,0.32,0.13,0.8,2.07,-6.95,4.91,0.49,-0.8,-0.26,-2.82,-0.74,6.4,2
-1.19,0.31,0.72,11.16,-13.13,2.46,0.17,-0.02,-0.25,0.12,8.67,-6.32,0.19,-0.05,0.49,5.49,4.63,-2.39,2
-0.14,-0.29,-0.78,-4.96,5.43,21.01,0.77,-1.07,-0.4,7.93,3.3,0.03,-0.86,0.1,-0.11,11.83,0.72,1.03,2
-0.59,0.16,1.62,1.39,-7.76,-14.14,0.17,-0.47,-0.55,-1.84,7.21,-3.39,0.34,0.85,0.64,0.11,9.51,4.45,2
-0.14,-1.04,0.12,7.74,3.47,12.22,0.32,0.88,0.35,4.51,-0.61,-10.22,-0.11,-0.65,-0.56,13.79,2.19,10.8,2
-0.14,-0.29,-0.33,9.69,8.84,19.06,0.62,-0.02,-0.25,15.74,-6.95,1.49,0.49,0.25,0.04,5,2.68,8.35,2
0.01,-0.14,-0.18,-2.03,4.45,0.5,-0.58,-0.02,-1,-9.16,-4.51,3.45,0.49,1.3,1.09,-16.49,5.61,2.98,2
-0.14,0.46,0.42,2.86,-1.9,-9.26,-0.28,0.73,-0.25,-0.37,4.76,-16.57,0.79,-0.35,-0.11,-8.19,-12.46,-10.2,2
0.01,-0.14,0.72,10.67,0.06,-0.96,-0.58,-0.47,-1,5,0.37,-2.9,-0.41,0.1,-0.11,6.46,-3.67,-12.15,2
0.01,1.81,-1.38,4.81,7.87,-17.07,0.92,-0.47,-0.25,-2.81,-4.51,9.8,0.49,-1.25,-1.01,14.27,13.91,8.35,2
-0.44,-0.44,0.27,-3.98,8.84,18.57,0.62,-0.47,-0.25,-2.33,16.97,-10.22,0.49,0.25,0.04,5,4.63,-3.85,2
-0.59,0.91,-0.33,-5.44,8.36,2.95,0.62,0.28,0.95,7.44,-5.98,25.91,0.19,0.25,0.49,3.53,2.19,-5.32,2
-0.74,-1.64,0.27,1.88,1.03,-9.75,-0.58,-0.47,0.2,6.95,14.04,-10.71,-0.26,-0.8,-0.71,-15.02,5.61,15.19,2
-21.9,46.35,55.2,-7.32,111.33,995.61,-12.45,-13.2,72.45,-3.91,-240.23,986.82,20.7,-6.45,73.5,-429.69,148.44,959.96,2
-20.55,46.35,55.65,-5.86,109.37,1050.78,-11.25,-12.75,72.15,-10.25,-231.93,987.3,20.25,-5.4,73.2,-392.09,143.07,897.95,2
-21.15,46.65,55.8,-0.49,91.8,958.5,-12.3,-12.9,72.75,1.95,-207.03,949.22,19.35,-7.05,73.65,-451.66,172.85,980.47,2
-21.9,46.35,55.2,-20.51,104.98,1058.11,-12.3,-12.6,72,-5.37,-216.8,899.41,20.7,-6.45,73.95,-414.55,139.16,918.95,2
-21.15,46.2,55.5,-9.28,107.91,1016.6,-12.45,-13.2,73.35,-3.42,-244.14,1043.46,20.1,-6,72.6,-387.21,138.18,854.98,2
-21,47.25,54.9,-6.84,68.36,884.28,-12.45,-12.75,72.9,-15.62,-189.94,802.73,21.9,-6.45,72.75,-491.21,180.66,1057.62,2
-21,45.3,55.2,29.3,149.9,1336.43,-11.25,-12.75,73.35,-17.58,-250,1120.12,21.3,-6.3,72.9,-315.92,136.23,733.4,2
-21.45,45.3,54.9,-78.12,132.81,1057.13,-10.5,-10.8,72.45,-116.7,-221.19,1621.58,22.8,-5.55,74.85,-320.8,125,997.56,2
-20.55,46.8,56.4,8.3,125,1080.08,-11.55,-9.6,73.8,3.42,-229.49,996.58,22.8,-4.8,73.65,-391.11,147.46,896.48,2
-19.35,46.35,56.85,13.67,148.44,1060.06,-9.6,-9,70.65,22.95,-184.08,913.09,22.05,-5.25,75.6,-376.95,153.81,902.34,2
-18.75,45.9,57,-25.39,136.23,854.49,-5.4,-8.1,74.25,-21.97,-202.15,1051.27,22.65,-4.65,75.75,-472.17,187.99,1015.14,2
-19.05,46.65,56.25,-5.86,109.86,891.6,-7.2,-9.75,74.4,31.25,-245.12,996.58,22.2,-3.6,76.5,-327.64,113.77,919.43,2
-19.95,45.9,57.45,-15.62,156.25,900.39,-8.25,-11.85,76.2,-44.43,-233.4,1013.18,22.8,-1.95,77.7,-401.37,125.98,962.4,2
-21,45.6,59.55,-431.64,-161.62,-550.78,-10.2,-12.6,76.5,-111.33,-570.31,1999.94,20.7,-4.65,75.3,-480.96,33.69,981.45,2
-22.65,44.4,60,4.39,91.8,1028.32,-15.15,-14.1,76.2,-9.77,-240.23,1032.23,22.5,-3.75,74.85,-423.34,154.3,942.87,2
-24.15,43.5,61.35,-17.09,94.24,956.05,-16.95,-14.25,78.3,-10.74,-206.54,866.21,19.65,-4.8,77.4,-413.57,153.81,922.36,2
-26.25,45.45,58.65,-22.46,105.96,1095.7,-15.6,-14.85,75.75,0,-188.48,788.09,18.3,-3.9,76.8,-310.06,138.18,769.53,2
-25.95,47.25,59.25,-18.07,49.8,578.61,-15.75,-14.7,74.85,27.83,-261.23,950.2,19.65,-4.5,75.15,-638.67,228.03,1243.16,2
-24.6,45,58.95,-37.11,90.82,950.2,-17.55,-14.85,75,-14.16,-232.91,944.82,18.9,-4.8,76.35,-199.22,120.12,700.2,2
-24.3,46.8,58.05,18.07,132.32,992.68,-17.1,-15.6,73.8,-18.55,-231.45,993.16,19.65,-5.25,75.9,-407.71,150.39,956.05,2
-26.25,48.15,58.65,28.32,157.23,980.47,-16.95,-15,72.9,-17.58,-265.14,1051.27,18.9,-5.25,76.95,-337.4,149.41,997.56,2
-24.3,46.35,56.85,6.35,177.73,917.48,-15.9,-15.6,73.5,-45.9,-227.05,1158.69,19.05,-6.45,76.05,-536.13,153.32,889.65,2
-23.7,45,55.65,213.38,188.96,1180.18,-14.55,-14.7,72.45,-6.35,-308.59,1175.78,18.75,-5.1,73.95,-460.45,150.39,912.11,2
-23.85,44.85,54.9,-46.87,-67.87,1999.94,-14.55,-14.7,70.95,-337.4,-392.09,1999.94,19.05,-4.65,74.25,-728.03,214.84,1999.94,2
-23.55,46.35,54.45,-10.74,107.42,999.51,-15.3,-13.2,71.4,-25.88,-223.63,963.87,19.05,-5.85,72.75,-430.66,153.32,959.47,2
-23.55,44.85,56.1,-14.65,117.19,1048.83,-13.65,-12.75,72.15,1.46,-223.63,996.09,19.35,-6,74.4,-396.48,154.79,889.65,2
-23.25,45.9,56.25,-21,104.49,1005.86,-14.1,-14.25,71.4,-4.39,-229.49,984.86,20.1,-5.25,74.85,-428.71,172.36,955.08,2
-21.9,46.8,55.65,-13.18,103.03,1017.09,-12.75,-13.35,73.05,-2.44,-217.77,956.05,20.4,-6.75,72.9,-413.57,150.39,920.9,2
-21.9,46.05,54.9,-17.09,109.86,1008.3,-12.75,-14.25,74.1,-8.79,-250,996.58,19.95,-6.45,73.95,-399.41,146.97,918.46,2
-21.45,47.25,56.1,-18.07,102.05,997.56,-12.9,-12.75,73.35,-5.37,-229,958.98,19.65,-6,72.6,-428.22,167.97,952.15,2
-21.45,47.55,56.1,-13.67,104.49,1009.77,-11.85,-13.65,73.05,-11.23,-223.63,964.84,21,-6.9,73.2,-402.83,152.83,909.18,2
-21.45,46.05,55.65,-16.11,106.93,1030.27,-13.35,-12.75,72.45,-6.35,-239.75,998.54,21.45,-5.85,73.5,-406.25,168.95,911.13,2
-22.05,45.9,55.5,4.39,106.45,1002.93,-12.3,-13.65,72,-15.62,-232.42,963.38,19.95,-6.15,73.5,-427.73,163.57,958.01,2
-21.6,45.45,54.3,-18.55,111.33,1041.99,-13.5,-12.9,72.3,-21.97,-221.19,967.77,20.25,-6.15,73.95,-395.51,156.74,872.07,2
-22.05,46.65,55.05,-22.46,95.21,1005.37,-11.25,-14.25,72.15,-12.21,-235.35,1024.41,19.95,-7.95,72,-430.66,158.69,937.01,2
-22.2,45.6,56.1,-23.93,96.68,1000.98,-12.75,-14.1,72.3,-19.53,-233.4,979.49,20.1,-5.55,73.65,-431.15,168.95,953.12,2
-20.85,46.65,56.25,-34.18,87.4,1015.14,-11.7,-13.95,73.65,-6.35,-229.49,992.19,20.7,-6.15,74.25,-411.13,146.48,900.39,2
-21.15,46.2,54.6,-3.91,113.77,1024.9,-13.35,-12.75,71.4,-14.16,-227.05,962.4,21.3,-5.25,72.3,-407.23,167.48,929.69,2
-22.5,46.2,54.6,-12.7,102.05,1020.51,-12.75,-13.35,72,-14.16,-227.05,994.63,19.95,-5.85,73.95,-414.55,165.53,925.78,2
-20.85,46.65,54.3,-3.42,104.98,1000.49,-11.7,-13.2,72.9,-6.84,-226.07,985.35,20.85,-7.35,72.6,-410.16,171.87,945.8,2
-21.9,46.8,55.65,-13.18,108.4,1017.09,-11.55,-12.6,72.75,-16.11,-218.26,971.68,20.1,-6.3,74.1,-417.48,166.02,932.13,2
-21.9,46.05,55.2,-9.28,109.37,1013.67,-13.35,-13.5,72.45,-7.81,-224.12,989.26,21.3,-6.3,73.65,-415.04,146,905.76,2
-20.4,46.2,55.5,-8.3,109.86,1010.74,-12.75,-12.9,72.3,-3.91,-242.19,994.14,20.4,-5.55,74.85,-403.32,148.93,926.27,2
-21.6,46.65,55.05,-13.18,99.61,1005.86,-12.3,-13.35,70.8,-15.14,-223.63,986.82,20.85,-7.05,73.35,-411.62,162.6,922.36,2
-21.45,46.35,56.4,-18.55,113.28,1002.44,-12.3,-12.6,71.1,-0.98,-236.33,992.19,21.3,-6,73.65,-420.9,150.88,939.45,2
-21.45,46.8,55.65,-15.62,104.98,1017.09,-11.85,-14.4,72.75,0.98,-223.63,983.89,20.4,-6.75,72.9,-407.71,169.43,914.06,2
-21.9,46.05,54.9,-0.49,105.96,1015.14,-13.65,-12.75,72.45,-16.11,-225.1,967.77,20.4,-6.75,74.1,-411.13,157.71,922.85,2
-20.4,46.2,53.85,-11.23,93.26,1000.49,-13.65,-13.5,73.35,0.98,-234.86,980.47,19.65,-6,73.35,-417.97,151.37,936.04,2
-21.15,46.2,54.6,-18.55,112.79,1020.02,-12.75,-12.9,72.75,-4.88,-216.31,975.59,21.3,-6,72.9,-406.25,161.13,922.85,2
-22.05,45.45,55.5,-11.72,99.12,1007.32,-13.5,-11.85,73.5,-3.91,-244.14,996.58,22.05,-6.75,73.35,-412.6,147.95,922.85,2
0.15,-0.8,-2.33,-0.93,-4.72,-47.04,0.72,-0.41,-1.24,3.3,2.66,-67.62,-0.5,0.35,-0.6,-16.7,-1.16,24.93,2
-0.6,-0.8,-1.28,-17.05,-2.77,97.98,-0.93,0.04,-0.04,15.02,-20.78,43.71,-1.4,0.35,-0.6,27.74,-5.07,-61.98,2
1.5,-1.55,-0.08,56.68,-32.06,-673.02,0.72,0.04,-0.34,53.59,-47.15,244.88,0.25,0.65,-0.15,-159.27,86.73,415.56,2
0.15,-1.55,-1.58,40.08,-8.14,-202.8,0.12,-0.56,0.11,-95.34,64.18,-240.47,-0.05,-0.85,-0.75,189.85,-87.1,-733.85,2
-1.2,-2.15,-0.68,-23.39,-3.74,-31.9,-0.33,-1.31,-1.39,-25.51,0.7,47.62,-0.5,-1.45,0.15,-33.78,21.3,36.17,2
-1.95,-2.3,-1.58,20.06,-24.25,25.71,-0.18,-1.31,0.11,-10.37,8.52,53.48,-0.95,0.05,-0.6,-9.37,-26.07,21.03,2
-2.1,-0.2,-0.23,-0.93,21.16,39.39,-0.18,-1.16,0.41,-3.54,19.26,-53.46,-0.2,-0.4,-0.6,84.38,-42.67,-179.66,2
-1.95,-1.55,0.37,-8.75,23.11,102.37,-0.48,-2.21,-0.79,30.64,-34.94,91.56,-2,-0.85,0,6.74,-9.46,-69.79,2
-2.7,0.85,1.12,-257.77,-216.63,-232.1,0.12,-0.56,1.01,233.77,-115.99,181.41,-0.95,0.35,-0.6,-308.69,-51.46,-17.06,2
-2.1,0.25,0.97,15.67,0.65,90.65,-1.53,-0.26,0.11,66.77,64.67,-94.47,-1.1,-0.55,1.2,-553.32,195.13,78.16,2
0.45,2.5,0.22,7.37,4.07,38.9,-0.93,0.04,0.71,-4.51,-0.27,5.63,-0.5,0.65,0.15,7.72,-0.19,-1.43,2
0.45,1.75,1.42,20.06,-2.77,-56.81,-0.48,1.09,0.71,-0.61,-10.53,28.58,1.15,0.5,-1.5,-51.36,14.46,59.11,2
1.8,0.85,3.07,-5.82,6.51,120.93,0.87,-0.26,1.01,13.06,6.56,-65.66,-0.5,0.35,1.65,67.78,-22.65,-126.43,2
0.6,1.6,3.52,64.99,39.71,-207.2,-1.38,0.34,1.16,15.5,-66.19,232.19,-1.55,-0.25,0,-114.84,35.46,105.01,2
-0.3,1.15,6.67,81.59,47.04,-81.22,-1.08,1.39,2.51,-66.04,34.4,-55.41,0.25,1.4,-0.15,-336.52,108.21,456.09,2
2.1,0.55,12.82,-42.44,13.35,-33.86,0.12,2.89,3.56,-33.81,30.98,134.53,0.85,2,0,-198.34,106.75,331.09,2
4.95,-1.7,16.72,-34.62,37.27,-165.2,-0.48,5.29,5.66,-20.14,62.72,83.75,1.15,1.25,1.5,-131.93,47.66,227.57,2
7.5,-2.15,9.22,-29.74,-11.07,-241.38,-1.38,5.59,5.66,-29.42,73.95,-156.97,1.75,2.6,1.65,-87.5,0.3,-110.32,2
6.9,-0.8,4.27,102.09,-155.11,110.19,-1.08,4.39,3.26,-84.59,35.86,-199.45,1.45,1.1,2.4,178.13,-60.25,-171.35,2
2.55,-0.5,1.72,2.49,2.12,8.62,1.92,3.34,1.91,-2.56,-5.64,8.56,0.85,2,-0.45,5.77,-9.46,-32.68,2
1.8,0.4,1.12,-4.35,-12.04,9.11,0.12,-0.26,1.76,-2.56,9.49,-1.7,2.8,0.5,-0.75,8.21,-2.14,-1.92,2
1.2,-1.4,-0.23,1.02,13.83,0.32,-0.33,1.69,1.31,8.67,6.56,-7.07,0.55,0.35,-0.15,5.28,4.21,1.99,2
0.75,-0.2,-0.68,2.49,3.09,-7,1.02,1.09,1.46,-3.54,-7.6,0.74,-0.8,-0.25,-1.05,3.81,13,1.5,2
0.6,0.4,-0.38,-0.44,2.6,-7,0.72,-0.71,0.71,-5.49,0.7,-7.56,-1.4,-0.4,1.2,0.88,-6.53,-5.83,2
1.05,-0.05,-0.08,9.81,6.51,22.78,0.72,0.79,0.41,3.3,-1.74,3.67,1.45,0.05,-1.65,7.72,-6.05,-22.43,2
0,0.25,-1.73,4.44,-5.21,-6.03,0.12,-0.26,0.56,0.86,-8.08,13.93,0.25,0.65,-0.9,-8.88,-8,15.66,2
0,0.25,0.97,4.44,10.42,-4.07,0.12,-1.01,1.31,2.32,-0.27,2.21,-0.5,-0.4,-0.6,10.16,5.67,-0.94,2
1.5,-0.35,0.82,6.39,-1.79,13.51,-0.33,0.19,-0.19,-0.61,5.59,-10,0.25,0.05,-0.15,8.21,-7.51,-15.59,2
1.65,-0.2,0.97,2.97,-3.74,-8.95,-0.18,-0.71,-0.34,3.3,-1.74,14.9,-0.8,0.5,0,-13.28,3.23,-11.69,2
1.05,0.4,-0.08,-10.7,2.6,-22.63,0.42,0.19,-0.64,-12.82,-3.2,2.21,-0.8,-0.85,-0.45,-3.02,5.18,9.8,2
-0.45,-0.2,0.22,5.9,-16.44,0.81,1.02,-1.16,-0.79,3.3,-2.71,-9.51,-0.05,0.5,0,0.39,-6.05,-5.34,2
0.6,1.15,-0.38,3.95,0.65,-10.42,-0.78,-0.56,0.56,2.32,3.15,2.21,0.85,-0.25,0.3,-1.07,-5.56,-0.94,2
-0.45,1,-0.68,-9.72,8.46,9.6,0.12,-1.01,0.11,-6.47,-4.18,-6.09,0.25,0.35,0.6,0.39,-7.51,-11.2,2
-0.45,0.55,0.22,0.04,-8.14,0.32,0.42,0.19,1.76,3.79,1.68,1.23,0.25,0.35,-0.9,4.3,-7.51,-0.94,2
-0.45,-0.5,-0.68,0.53,-3.74,-0.65,0.12,0.49,-0.64,-0.12,6.56,6.11,-0.8,-0.25,-1.05,-2.53,8.11,7.84,2
0.6,-0.05,0.82,-9.72,-6.67,11.55,-1.38,1.09,-0.04,-7.93,-4.67,-12.44,0.4,-0.55,1.05,8.7,-10.93,-10.22,2
-0.3,1.6,0.37,0.04,1.63,7.16,-0.78,0.49,1.01,11.6,1.68,10.02,-1.1,-0.55,-0.45,1.86,-10.44,-0.46,2
0.6,1.15,1.12,-6.3,3.09,-0.17,0.42,-0.26,0.11,-1.1,-3.69,-6.09,0.55,-0.4,-0.9,-4.98,1.28,-0.46,2
-0.6,0.4,-0.08,-16.07,12.86,-7,-0.48,0.79,0.71,4.76,-11.5,-3.65,0.25,0.35,-0.15,-2.53,-5.56,1.01,2
-0.6,-0.35,-0.38,2.97,-4.23,-4.56,0.27,0.34,-0.04,11.6,7.54,-0.23,1.45,-0.4,-1.35,3.32,-3.61,1.01,2
1.65,-0.5,0.97,1.51,2.6,0.81,-0.33,0.49,0.11,3.79,-3.69,-1.21,-0.05,-0.85,0.3,18.46,-10.44,-3.87,2
0.75,0.25,0.22,-1.42,1.14,1.79,-0.18,0.04,0.41,-6.96,-2.71,7.58,0.4,0.95,0,2.35,-0.68,1.99,2
-0.3,0.4,-0.08,-7.77,-3.26,7.16,-0.48,0.34,0.41,7.2,3.15,-12.93,-0.05,0.95,-1.5,7.72,9.58,6.87,2
-0.45,0.25,-0.68,4.44,-2.77,-12.86,-0.18,-0.41,-0.34,-1.59,-2.23,2.7,-1.4,0.65,1.2,-0.09,-11.91,8.82,2
0.45,0.55,-0.23,-4.84,2.12,9.11,0.42,0.94,1.31,-4.51,-2.71,20.76,-0.5,0.65,0.6,4.79,4.7,-0.94,2
-0.45,0.25,-0.23,-0.93,-0.81,-0.65,1.92,-0.41,-0.79,-5,10.96,7.58,-0.05,-0.85,-0.75,-0.58,-5.07,5.89,2
0,0.25,-0.68,-20.95,-2.77,1.3,0.42,-0.56,0.56,-5.98,3.63,-12.44,0.4,-0.25,1.8,15.53,-7.51,-9.25,2
1.2,1.45,0.52,4.93,-6.67,-2.12,-0.18,0.79,-1.54,-5.98,-6.62,3.67,1,0.05,0.15,-0.58,-2.63,-3.39,2
0.6,-0.35,-0.08,-8.26,13.35,-2.61,1.02,-0.41,0.41,-10.37,-5.15,-2.19,-1.7,0.35,-0.9,-5.95,4.21,5.4,2
0,1.45,-0.98,-6.3,6.02,-3.58,-0.18,0.04,0.71,0.37,-2.23,-1.21,-0.8,0.5,-0.75,5.77,1.77,-7.29,2
-2.07,0.9,0.04,4.46,-6.45,1.41,-0.32,-0.2,0.75,-9.18,14,10.7,0.41,0.49,0.9,-9.63,-1.14,-12.42,2
-0.27,-0.15,0.64,22.04,-1.56,-7.38,0.13,-0.5,2.25,-2.34,1.31,-7.37,-0.49,1.09,0.75,-7.68,-3.09,21.27,2
0.18,0.3,-0.26,19.6,-2.05,14.6,1.03,0.4,0.45,10.35,0.33,-6.39,0.41,0.94,0.9,5.02,-5.54,-9.49,2
0.18,0.3,0.64,17.65,2.34,-12.75,0.28,0.1,0.15,-7.71,5.7,7.28,-0.19,-0.41,-1.2,4.04,-4.07,12.97,2
1.68,0.9,-0.41,11.79,4.3,27.29,0.28,0.85,0.15,-2.83,-2.11,2.4,0.56,1.09,0.75,10.39,-7,-14.37,2
-0.27,-0.45,-0.56,-1.4,-8.4,-43.02,0.43,-0.2,0.3,5.47,-1.13,-4.44,1.01,0.64,0.75,-27.7,7.65,35.92,2
0.48,0.45,0.04,-16.04,3.32,29.24,-1.37,-1.1,-0.3,6.93,-4.06,18.51,-0.49,0.34,0,53.36,-8.95,-52.95,2
-1.02,-0.15,-0.26,-1.88,12.11,43.4,-1.37,0.85,-1.05,-3.32,0.33,12.65,1.61,-0.86,-1.35,35.78,-14.81,-73.94,2
-1.02,-2.1,-0.26,2.02,2.83,-51.81,0.28,-0.65,-0.3,-2.34,7.17,-34.71,-0.04,0.49,0.15,-26.23,-0.65,49.1,2
-0.42,0.15,-1.91,29.85,8.2,60.98,-0.32,-0.5,0.75,-8.2,24.26,-66.45,0.56,-1.16,1.05,88.02,-52.41,-203.83,2
-0.57,0.3,-0.56,115.3,22.85,-179.74,0.28,-1.1,-0.6,-59.47,-85.12,305.62,-0.19,-0.41,0.75,-59.93,31.09,125.27,2
-3.27,-0.3,-2.81,-350.52,31.64,276.31,-0.92,-1.85,-1.5,339.45,-167.15,-251.51,1.01,-0.71,0.3,-365.59,142.41,733.18,2
-2.52,0.9,-5.06,3.97,-6.45,-0.54,1.33,-0.95,-2.7,18.65,3.26,9.72,0.26,-0.41,0.75,-18.42,18.88,82.79,2
1.53,3.75,-8.81,23.51,-16.21,-23.98,2.08,-1.7,-0.9,-27.73,19.86,29.74,1.01,0.34,1.05,6.97,24.74,114.53,2
3.63,3.75,-10.01,45.97,17.97,-172.9,2.53,-2.45,-0.15,-7.23,13.03,46.83,0.41,-0.56,0.45,-39.42,22.3,76.45,2
5.28,3.45,-5.36,-28.25,38.96,-24.96,2.53,0.55,-1.95,3.03,59.41,-6.39,1.46,1.39,3.3,-56.02,34.02,68.63,2
6.03,3,-2.21,-21.42,118.06,-435.11,2.98,0.55,-0.45,32.32,-135.41,241.65,1.76,2.59,2.1,-27.21,50.62,-110.57,2
2.88,1.35,1.54,-1.4,-5.96,-30.33,0.73,0.85,1.2,-8.2,5.21,-2,0.26,0.64,1.05,1320.44,-479.66,-2928.44,2
-0.42,-0.3,3.49,3,-3.03,-13.24,-0.47,0.85,2.4,-4.79,17.91,-97.21,-0.79,0.94,0.9,0.13,-3.09,15.9,2
-2.52,0.9,3.94,-6.28,12.11,140.08,-2.12,0.1,2.4,3.03,-6.5,36.58,0.26,0.64,0.75,77.77,-7.49,-102.75,2
-2.52,-0.6,2.29,11.3,-10.84,-199.27,-1.97,-0.5,1.05,-19.43,-8.46,80.52,0.56,1.09,0.75,-130.24,67.71,235.14,2
-2.97,-0.3,0.04,-142.02,24.31,28.27,-3.62,-0.95,-0.45,22.56,37.44,-321.82,-0.94,1.09,0.75,83.63,4.23,-62.71,2
-1.62,2.1,0.79,13.25,26.76,59.03,-2.42,-1.7,-1.2,-10.64,-5.53,248.98,-0.19,-0.41,1.8,-75.55,-9.93,-87.13,2
-1.17,2.1,-0.41,3.97,-24.51,-45.46,-2.57,-1.85,-3.3,2.05,8.14,-17.62,-0.34,0.94,1.95,26.5,31.57,12.97,2
0.03,2.1,-0.41,8.37,57.03,-68.9,-1.67,-1.1,-6.45,-3.81,35,37.55,0.56,-1.16,3.6,-87.76,66.24,114.53,2
-0.42,2.85,-0.41,-36.06,47.75,-375.54,0.88,0.55,-4.35,27.44,23.77,-38.62,-0.49,0.64,2.55,-113.15,58.92,112.09,2
0.03,1.65,-1.16,240.79,317.28,524.36,1.03,0.4,-2.55,28.91,62.83,205.52,-1.39,-0.71,2.85,73.37,-35.32,41.78,2
-0.87,0.9,-1.61,483.96,-138.77,-1252.01,1.33,1,-1.2,-209.86,-548.5,1018.94,-0.19,-1.91,0,261.85,-466.47,-1959.2,2
0.18,0.3,-2.51,-9.7,-10.84,3.36,0.13,-0.2,-1.2,-0.39,-8.95,12.16,-0.34,-0.56,0.15,-0.84,1.79,-7.05,2
-0.57,0.75,-1.01,8.86,-5.47,2.88,0.88,-0.5,0.3,-6.74,15.47,-9.32,-0.19,-0.41,-1.2,-3.29,6.67,11.02,2
-1.02,-0.45,0.19,-0.42,9.18,4.34,0.43,0.55,-0.15,-2.83,-11.39,-5.42,-0.34,0.49,0.9,8.43,-12.86,-26.58,2
-0.42,0.15,-0.86,-8.23,1.85,4.83,-1.37,-1.1,0.9,5.96,9.61,7.28,0.41,-0.56,1.2,-2.31,4.72,8.09,2
0.63,-0.45,-0.26,0.07,-0.59,-10.31,-0.77,-1.25,-1.65,5.96,0.82,-29.34,0.26,0.04,0,-10.61,-1.63,2.23,2
0.63,-0.45,0.19,-9.7,0.88,8.74,0.73,-1.1,-0.3,-10.16,6.19,-5.91,-0.49,-0.41,1.8,8.43,0.32,-10.47,2
0.63,-0.15,0.94,4.46,12.11,6.78,-0.32,-0.95,-0.9,0.59,-2.6,7.28,-0.79,0.94,-0.6,-9.14,-10.42,7.6,2
0.78,-0.3,0.79,2.51,-2.54,-5.91,-0.77,0.25,-0.9,-1.86,0.82,-10.79,-0.49,0.04,0.3,-10.12,2.28,10.53,2
0.03,0.45,0.04,-8.23,-4.98,0.43,0.73,-1.1,0.45,4,-1.13,12.16,0.26,0.34,0.3,-6.7,6.67,-12.42,2
0.78,0.45,0.79,4.95,-5.47,18.01,0.73,0.1,-0.6,-12.11,-0.64,-8.35,0.86,-0.26,0.45,18.69,-7.49,-0.21,2
-0.57,0.3,-0.26,-4.33,9.67,-11.77,-0.32,-0.2,1.05,4,11.07,10.7,-0.49,0.34,0,-15.49,-5.05,14.92,2
0.03,0.15,0.34,-8.23,8.2,9.22,-0.47,-0.35,0.9,-4.79,-4.06,9.23,1.01,-0.41,0.3,14.78,-7.49,-18.28,2
0.48,0.15,-0.41,-9.7,-2.05,-6.89,-0.17,-1.1,0.15,-0.39,-2.11,-2.98,0.26,-0.41,0.75,-15,-1.63,20.29,2
-0.87,-1.5,-0.41,0.56,0.39,0.92,1.03,-0.35,0.15,-5.76,9.12,-7.86,-0.04,0.19,0.9,11.36,1.3,-2.17,2
0.48,0.45,0.04,8.37,-4.49,8.25,-1.97,0.25,-1.65,8.4,-12.36,10.7,-0.79,0.94,1.2,22.11,-3.09,-16.82,2
-0.27,0.3,-1.46,-1.88,-4.49,0.92,0.73,0.1,0.9,0.1,2.77,-1.51,0.56,0.04,-1.5,-12.56,5.69,4.67,2
1.08,0.3,-1.01,0.56,-9.38,-2.01,0.73,0.85,-1.05,-1.86,-4.55,0.44,0.41,0.49,0.15,-3.29,-8.95,12.97,2
-1.02,-0.9,-0.56,5.93,-5.96,8.74,-0.32,0.25,-0.15,3.52,-1.13,-8.35,-0.04,-0.26,0.45,-0.84,-7,4.67,2
0.03,-0.6,0.04,-6.77,4.78,2.88,-0.32,-0.95,0.3,-6.25,-6.99,-24.95,0.86,0.19,-0.3,3.55,-9.93,5.16,2
1.53,0.3,1.39,-6.77,2.34,4.34,0.43,-0.95,-0.15,1.56,1.31,-9.32,0.56,-0.71,0,-2.31,-7.98,-6.56,2
0.63,-0.45,0.19,-7.74,-8.4,-0.54,0.88,1,0.75,10.84,9.12,20.46,-1.39,-0.71,0.3,0.13,-0.16,8.58,2
0.78,-0.3,-0.41,4.95,12.11,3.36,0.73,0.4,0.9,-12.6,7.17,-1.02,-0.34,-0.86,-0.3,1.11,-6.02,4.67,2
0.66,-0.18,-0.24,-1.94,4.08,4.84,-0.27,-0.22,-1.08,-1.41,-3.36,-4.24,0.36,-0.55,-0.67,0.3,9.25,-13.87,2
-0.39,-0.63,0.36,-1.46,3.59,8.74,0.18,0.23,-1.08,1.03,-1.89,-9.61,0.96,0.05,-0.52,-5.56,4.37,-3.13,2
-0.39,0.42,0.81,8.31,0.18,-21.53,-0.12,0.08,-0.18,3.96,13.24,11.38,1.56,0.2,-1.72,-31.44,10.72,33.49,2
1.26,0.12,0.81,-5.36,-1.78,18.51,1.38,-1.27,-0.33,4.44,18.13,-58.93,-0.99,0.05,0.68,13,-18.58,-11.92,2
-0.24,-0.93,-0.24,4.4,3.59,19.49,-0.12,1.13,0.57,-3.37,7.38,-57.95,0.96,-0.4,-0.52,31.06,-12.23,-46.1,2
-0.84,-0.63,1.26,4.4,14.34,48.29,-0.87,-0.37,0.27,14.7,-30.7,15.29,0.36,0.5,0.08,52.06,-54.71,-186.24,2
-1.14,-1.53,0.81,27.35,0.66,34.13,-0.87,-2.17,-0.93,-35.11,15.69,-102.88,0.51,-0.7,0.98,103.82,-75.71,-443.07,2
-2.49,-2.28,0.36,21.98,-51.09,-310.1,-2.07,-2.17,-0.18,-124.95,75.26,83.65,-0.84,1.7,0.38,-253.61,143.04,774.21,2
-0.99,-2.88,0.66,-115.22,45.1,-18.11,-5.67,-2.92,-0.93,32.28,-17.52,198.39,-1.74,1.4,0.23,-359.56,276.34,1072.49,2
-1.44,-1.68,0.66,1.47,8.96,-1.02,-8.52,-4.12,-1.38,-18.02,29.36,13.82,-2.19,1.85,4.73,-18.25,-3.93,36.42,2
-3.69,-1.53,2.01,12.71,16.78,110.79,-13.47,-7.57,-2.13,1.03,14.22,80.72,-2.04,2,5.18,12.02,-5.4,-56.35,2
-2.19,-0.93,2.91,21.01,17.27,-39.11,-13.92,-9.07,2.07,14.7,60.61,38.24,-0.39,0.95,5.93,-52.43,40.5,105.27,2
-3.54,0.27,3.81,0.01,32.4,-40.57,-11.37,-7.57,4.77,85.99,13.24,-23.29,-0.39,1.25,7.13,34.48,-4.91,-40.24,2
-2.64,-0.18,2.91,136.73,-80.39,-702.68,-9.57,-5.77,3.42,-114.7,-42.91,930.33,0.21,1.85,6.83,-179.39,7.79,286.42,2
-0.84,-1.08,2.76,2.94,5.06,-2,-4.92,-3.37,3.27,338.92,275.94,-833.83,-2.19,0.35,3.23,563.29,129.37,1072.49,2
0.51,-1.08,2.01,18.08,2.62,-110.89,-0.42,0.08,3.27,5.91,9.34,-68.7,0.36,2.3,3.08,-38.76,14.62,79.88,2
0.81,0.12,-0.39,22.47,6.52,8.25,1.83,-1.27,1.62,-29.73,-5.31,130.52,1.56,0.95,1.13,71.1,-27.86,-92,2
0.21,0.27,0.21,7.33,-36.45,-278.85,1.53,0.83,-0.18,-53.66,18.61,-60.88,1.56,1.25,-0.97,-123.72,49.29,268.35,2
2.31,1.47,-0.54,11.73,-7.64,87.84,3.18,1.88,-1.38,49.86,17.15,-359.71,2.31,1.25,-0.67,-11.42,28.78,-11.43,2
2.31,1.77,-2.19,-25.38,71.46,49.27,3.03,2.93,-3.03,79.15,-90.76,83.65,1.11,-1.3,-0.97,-78.31,36.11,227.34,2
2.31,3.72,-2.19,-1.94,17.27,21.44,5.43,4.43,-9.18,2,21.54,86.09,2.16,-1.15,1.28,-33.39,21.46,4.19,2
1.26,2.07,-1.14,42.49,24.59,98.59,4.98,1.73,-9.48,-21.43,31.31,60.21,2.01,-0.85,3.68,-34.86,-16.63,74.99,2
-0.84,2.37,-1.14,46.4,49.98,-80.12,0.48,0.98,-8.43,33.74,42.05,-106.78,-0.09,-2.35,1.13,32.04,31.71,77.92,2
-2.49,-0.33,-1.14,45.42,-8.13,-1145.55,-2.37,0.98,-5.28,47.41,189.02,-462.74,-0.39,-1.3,2.33,89.66,32.69,-58.8,2
-0.84,0.12,-0.39,-12.69,-9.1,36.09,-0.27,-0.97,-3.48,-3.37,5.92,-0.83,0.36,0.2,-1.42,2080.38,-822.78,-2651.08,2
-0.54,0.42,-1.59,-9.76,15.8,7.77,-0.72,-0.52,-1.83,-4.83,3.48,-26.22,-1.14,0.2,0.08,-11.42,5.35,18.35,2
0.51,-0.63,-0.39,2.45,-7.64,-5.91,-0.87,0.38,-1.68,4.44,2.01,15.29,-0.09,-0.55,0.38,4.69,-10.77,-14.36,2
0.81,0.12,-0.39,-7.8,-3.24,-2,-0.12,0.08,-0.18,3.47,2.01,14.31,-0.09,0.95,0.38,1.77,-1.49,-6.06,2
-0.54,0.27,0.66,0.5,7.5,-4.44,0.78,-0.37,0.27,2.98,5.43,-4.73,-0.54,0.05,-0.52,-1.16,-0.51,6.63,2
0.51,0.42,-1.14,-1.46,-7.64,-8.35,-0.12,-0.37,-0.18,-5.32,-13.61,12.36,-0.24,-0.7,0.23,4.69,0.46,-5.57,2
0.66,-0.48,-1.44,3.43,-6.66,-3.46,0.18,0.23,-0.33,2,-2.87,6.5,0.36,-0.25,-0.37,6.65,-10.77,0.77,2
-0.84,0.42,-1.14,1.47,-3.73,7.77,0.18,0.23,0.42,-8.25,1.04,6.5,-0.09,0.2,-0.67,6.65,-4.91,-16.8,2
1.26,-0.63,-0.39,0.5,1.64,-8.84,0.18,1.43,-0.33,-10.69,-2.38,-8.64,-0.54,-0.4,0.68,-13.37,-10.77,-0.69,2
-0.24,-0.48,-0.24,19.54,2.13,13.14,-1.32,1.13,-1.38,-3.37,11.29,17.24,0.51,0.65,0.68,2.25,-21.51,-11.43,2
0.21,-0.93,0.21,1.47,-2.75,-15.18,-0.42,0.38,-0.18,2.98,4.45,-7.66,0.21,0.65,-0.52,-1.65,-6.37,23.72,2
-0.39,0.12,0.06,1.47,-3.73,-2.49,-0.87,0.83,-0.48,-13.13,4.94,-11.08,-0.54,0.65,0.68,-11.91,1.44,-5.57,2
0.81,0.42,-0.39,0.99,1.64,10.21,-0.27,0.53,0.42,-2.88,2.99,2.1,0.36,-0.25,-1.72,7.14,-3.93,2.24,2
0.81,-1.08,-1.59,3.92,-5.68,-7.37,-0.27,0.53,-0.33,14.21,2.01,9.43,-0.39,0.5,1.13,2.74,-4.42,11.03,2
0.06,0.12,-0.39,13.68,-0.31,0.44,-0.27,0.53,1.17,-0.93,7.87,-22.31,2.16,-0.4,-0.52,4.69,-14.67,0.77,2
0.66,-0.93,-0.54,-13.17,-2.27,13.63,-0.12,0.83,1.32,2.98,0.55,16.26,1.11,0.2,0.08,3.72,0.46,-2.16,2
0.81,0.12,0.06,-5.85,-10.57,-12.74,0.48,-0.97,-0.03,-4.34,-0.43,-21.82,-0.54,-0.4,-0.07,-16.3,7.3,21.77,2
-0.54,-0.18,-0.99,-8.29,7.99,17.04,-0.42,0.08,-0.48,1.52,-5.8,-0.83,-1.14,0.5,0.08,17.88,-3.93,-28.03,2
0.66,-0.18,-0.24,-2.92,-8.13,-15.18,-0.27,0.23,0.87,6.4,-8.24,6.5,0.36,0.95,0.83,-13.86,5.35,28.12,2
-0.54,-0.48,-0.54,0.01,-8.61,20.95,-1.92,0.23,0.42,13.72,9.83,-21.33,-0.39,0.2,0.38,5.67,-3.44,-13.39,2
-0.99,0.72,-0.24,6.85,-9.1,18.51,0.18,0.23,0.87,-8.74,4.94,12.85,-0.24,-1.15,0.68,1.77,8.28,-19.73,2
-0.24,-0.18,0.66,6.36,-0.31,-10.3,1.83,-0.97,-0.33,3.47,-1.89,-7.66,-0.39,-0.25,0.83,-9.95,-6.37,11.03,2
-0.99,-0.18,0.21,-0.48,-3.73,-4.44,-1.47,-1.27,-2.58,0.54,-4.82,-4.24,-0.24,1.1,-0.52,3.72,2.91,1.26,2
-0.39,-0.33,-0.84,3.43,4.08,-5.91,1.38,0.53,-0.03,-0.93,10.8,-11.08,0.21,-0.4,0.68,-16.79,4.86,17.86,2
0.81,-0.63,-0.84,0.5,11.41,4.35,0.48,-0.52,-1.83,9.33,-0.92,-1.8,-0.24,1.4,0.23,-1.16,-0.51,5.17,2
0.21,0.72,-0.24,1.96,-8.13,2.88,-0.12,-0.37,-0.93,-4.83,1.52,10.41,-0.54,-1.15,0.98,-3.61,2.91,5.66,2
-1.47,-2.08,0.74,-1.05,-4.02,5.41,0.27,-0.76,1.01,11.04,18.19,-40.44,-0.95,-0.41,-0.88,10.21,0.51,-0.96,2
-0.27,0.32,-0.46,-2.03,10.14,28.36,-0.33,0.44,-0.79,2.26,15.75,-8.21,-0.35,-0.86,-0.43,20.46,-3.89,-61.02,2
0.48,-0.28,-0.31,7.74,8.19,-37.07,-1.38,0.29,-0.19,1.77,-3.29,36.71,0.85,0.19,1.07,-15.18,10.28,47.87,2
0.18,0.77,1.04,12.62,1.35,-17.54,-1.08,1.64,0.41,1.77,-3.78,-9.19,-2,-0.56,0.77,13.63,-9.26,-15.61,2
0.03,0.47,-0.76,-13.75,17.96,132.37,-1.08,0.89,1.16,-3.12,16.73,-44.83,0.25,0.34,0.62,21.44,-9.74,-68.83,2
1.08,0.32,1.04,-13.26,-15.74,-122.52,-0.78,0.44,0.86,-8.49,-5.73,20.11,-0.5,-0.41,-0.13,-41.06,27.85,64.47,2
0.63,-0.88,1.04,-2.52,-59.19,-4.35,-0.18,0.29,1.76,34.97,115.36,-579.99,-0.35,-0.26,-0.43,-38.62,-60.04,-49.3,2
0.18,-0.13,1.04,-158.77,24.3,584.03,-1.68,-0.76,0.56,34.97,-10.61,49.41,0.4,0.19,0.32,350.05,-148.42,-728.98,2
-0.42,-1.03,1.34,-14.72,41.88,101.6,-3.03,-0.46,3.26,-0.19,35.28,-3.33,0.4,1.99,0.77,-125.53,70.82,228.05,2
0.03,-1.03,2.39,5.78,0.38,-22.42,-7.23,-2.56,5.81,3.72,-8.17,98.24,0.4,1.69,1.52,-18.6,-1.93,28.83,2
-1.02,-2.08,1.49,3.83,21.86,74.26,-6.03,-1.36,7.31,46.2,-4.27,-18.95,-0.5,2.14,1.67,-2,-0.96,43.48,2
-1.47,-0.88,2.24,36.55,15.51,16.15,-5.43,-1.51,6.26,0.3,7.45,13.27,-0.95,1.09,3.17,46.83,26.88,-77.13,2
-3.12,-0.88,2.24,122.48,-55.29,-937.95,-4.98,-1.96,4.76,59.87,163.21,-219.64,-0.05,2.74,5.57,-355.03,42.01,525.41,2
-0.87,-2.53,4.49,5.3,0.38,-60.99,-0.78,-1.81,5.06,-1.16,22.1,-60.94,2.2,2.59,1.22,311.48,-85.43,-711.89,2
1.08,-1.18,4.19,-27.42,25.77,164.1,1.32,-1.36,6.11,12.02,10.38,-32.62,2.2,2.59,2.42,81.98,-33.67,-176.25,2
2.58,-1.48,4.04,22.39,3.8,-91.27,1.02,-0.01,4.46,-33.88,-19.4,200.29,2.05,0.94,1.07,-40.09,9.79,81.07,2
2.73,-1.18,3.44,26.78,-5.97,162.15,0.87,-1.36,5.06,5.19,64.58,-445.71,2.2,3.64,1.67,139.6,-25.86,-190.9,2
1.83,-3.13,3.89,-4.96,-33.8,96.72,-0.78,-2.86,7.61,-47.06,23.57,-105.38,1.15,4.99,2.27,350.54,-238.75,-842.27,2
2.88,-2.53,3.59,-8.38,38.95,122.6,-0.33,-5.56,12.26,-10.93,60.19,-17.98,4.6,6.19,4.67,-132.86,10.76,-25.37,2
3.63,-3.58,3.44,64.38,12.58,127.97,4.92,-6.31,18.41,-93.94,57.26,112.4,4.3,6.34,4.37,17.04,5.39,119.65,2
3.63,-1.63,4.64,190.84,-38.2,-142.05,4.47,-2.56,13.01,42.78,77.77,-279.21,2.35,6.34,3.62,39.99,0.02,-50.27,2
0.63,-0.43,1.49,202.56,45.3,988.26,4.32,-0.01,8.21,-61.22,239.87,-599.03,3.55,3.79,1.82,20.95,-104.96,-239.73,2
1.53,-0.88,0.29,9.2,-7.43,-10.21,1.92,0.74,2.06,3.72,7.94,-20.42,2.2,2.59,0.62,-15.18,-5.35,-8.77,2
0.78,0.47,-0.31,-1.05,-7.92,-10.21,0.87,-0.31,2.36,4.7,-7.2,33.78,0.55,1.84,0.92,-8.35,8.81,1.48,2
1.08,-0.88,0.29,-4.96,1.84,2.48,-0.33,0.14,-0.04,6.65,-0.85,4.49,1.75,-0.41,-0.13,-3.95,-14.63,-6.33,2
0.18,-0.13,1.49,12.13,8.19,-5.33,0.42,-0.31,-0.34,-3.6,7.94,-0.4,-0.35,-0.26,-1.48,6.3,-0.47,4.41,2
1.68,0.47,0.89,7.74,-5.48,13.71,-0.93,-0.01,0.26,5.67,10.87,7.42,0.25,0.04,0.62,5.32,-3.89,-27.32,2
0.18,-0.43,-0.16,1.88,-11.83,1.51,0.12,0.14,-0.04,-7.02,0.62,-11.63,0.55,-0.71,-0.88,-21.53,5.39,22.97,2
0.78,-0.58,-0.76,0.9,2.82,5.41,-0.18,-0.46,1.01,2.74,-7.2,6.93,-1.1,0.94,-0.43,7.77,2.95,-20.49,2
-0.57,-0.43,1.49,1.88,-1.09,-14.61,-0.48,1.79,-0.94,5.19,-2.8,-18.46,-0.5,0.04,0.17,-8.84,0.51,34.2,2
-0.42,0.17,1.34,-6.91,-0.11,23.48,1.92,-1.21,-0.94,0.3,-9.15,-3.82,0.55,0.34,-0.13,14.11,-3.4,-40.51,2
1.08,0.77,1.04,-9.84,-10.85,-12.65,-1.08,0.44,0.41,-8.49,5.5,6.44,-0.8,0.49,0.32,-13.72,8.81,29.8,2
0.03,1.37,-0.76,10.18,5.26,10.78,0.72,0.29,-0.49,10.56,1.11,-27.25,0.85,0.19,-0.73,12.16,-15.12,-35.63,2
1.08,-0.13,-0.16,1.39,-2.55,1.02,0.27,-1.21,-0.49,11.04,-5.73,29.88,0.4,0.19,0.32,-8.84,-1.44,12.71,2
0.48,0.47,-0.76,6.27,-11.83,-12.65,0.12,0.89,0.86,-1.65,-0.85,-26.28,-0.95,0.04,-1.33,-3.46,2.46,20.53,2
-0.57,-0.88,0.29,-2.52,-1.09,11.27,-1.08,0.14,-1.54,0.3,-2.8,31.83,-0.5,-1.46,0.62,15.58,-13.16,-14.14,2
1.23,0.17,-0.31,-6.91,-15.25,-6.79,-0.33,0.44,0.41,0.3,-1.34,-9.67,-0.8,0.49,0.77,-27.39,-3.4,27.85,2
1.53,0.32,1.04,0.9,7.21,1.02,-0.48,0.29,-1.39,1.77,-2.31,-10.65,-0.8,-0.86,1.07,-10.3,-9.74,-21.46,2
1.53,-0.88,-1.36,-1.54,-4.51,-6.31,1.32,0.14,0.41,9.58,8.43,24.02,-0.05,-0.56,0.02,6.79,5.88,7.83,2
-1.17,0.17,-0.76,9.2,-8.9,-9.72,0.12,-0.61,-0.04,4.7,5.5,-25.3,-1.4,0.34,0.17,-3.46,3.44,15.16,2
0.18,0.77,-0.46,17.01,-12.81,13.71,0.12,0.44,-0.04,3.23,4.52,14.74,-0.5,0.64,0.17,9.72,4.42,-15.12,2
-0.87,0.17,0.14,5.3,-2.55,-3.38,-0.93,0.74,0.26,-4.58,1.11,14.74,1.15,0.49,-0.43,1.42,-5.84,-0.47,2
-0.87,1.37,0.44,-19.12,-0.11,-0.93,-0.18,0.29,-0.19,18.86,-3.29,-11.14,-0.05,1.24,1.07,-4.93,7.83,-2.91,2
-1.02,-0.13,0.74,7.25,-5.48,-4.84,0.27,0.74,-0.19,9.09,-5.24,-3.33,0.25,0.34,0.17,-2.49,3.93,4.9,2
-0.87,0.17,0.44,-9.35,-2.55,2.48,0.72,-0.01,1.01,1.77,0.62,2.04,0.55,-1.16,0.62,-7.37,5.88,8.32,2
1.23,0.92,-1.06,-14.72,-3.53,-6.31,-0.33,0.14,0.86,9.09,-1.82,-9.67,0.25,-0.71,0.92,6.3,5.39,1,2
1.08,-0.43,-0.16,12.62,-5.97,-2.4,-1.08,0.14,-0.79,-5.07,4.52,4,-0.2,0.64,-0.13,-3.46,-12.19,-10.72,2
0.03,0.92,-0.31,-4.96,6.24,1.51,-0.33,-0.61,1.16,10.56,1.11,4.49,-0.05,-0.86,-1.48,-1.02,-2.42,-11.21,2
1.53,-0.43,0.29,1.88,4.28,1.99,-0.78,-0.61,-0.04,5.19,0.62,0.58,0.25,-0.41,0.17,11.18,7.83,-10.23,2
-0.42,0.17,-0.31,0.41,-0.6,-5.82,-0.93,0.74,0.26,0.79,0.13,-15.05,-0.5,0.34,-0.88,0.44,-1.93,-1.45,2
-0.02,0.16,-1.22,4.94,-3.42,7.38,1.58,-0.22,0.48,-4.61,-4,66.82,-0.23,0.59,0.12,10.41,10.59,26.04,2
-0.62,-0.89,-1.07,-18.5,-7.81,-15.57,0.53,1.13,-0.42,1.74,2.83,-47.43,-0.08,-0.61,-0.78,-17.91,29.15,50.45,2
0.58,-1.19,0.88,7.87,-9.28,-25.82,0.83,0.23,-0.27,4.67,7.72,-36.69,-0.23,-0.76,0.57,5.04,-8.45,-31.09,2
0.13,-0.44,1.63,-12.64,-9.76,-22.4,-0.22,0.68,-0.12,-16.33,-19.14,166.92,0.37,-0.31,0.72,22.13,7.17,24.58,2
2.53,1.66,1.18,-9.22,11.72,-67.33,0.53,0.68,1.53,-23.17,44.34,-50.85,-0.53,0.29,0.12,-49.16,48.19,238.93,2
3.88,-0.44,0.58,-1.41,-28.32,151.42,0.53,2.63,0.78,-18.77,159.08,-808.18,2.02,1.94,-0.03,413.24,-135.4,-737.63,2
8.53,-0.14,0.58,-1.41,7.81,35.7,2.03,4.73,0.93,-8.52,11.13,53.64,2.17,-0.01,-0.18,209.14,-168.61,-496.42,2
11.23,0.46,2.68,16.66,15.63,-43.89,4.43,6.98,1.68,13.46,19.44,-106.52,1.42,2.54,0.12,-11.08,-7.96,-0.33,2
11.23,2.41,5.08,17.63,2.93,-30.71,5.63,7.43,2.88,-14.86,19.92,8.72,1.72,2.84,1.62,20.17,-56.3,-111.66,2
10.63,1.81,5.23,27.89,21,48.88,5.63,5.48,5.43,-69.06,27.25,-26.93,2.47,1.79,4.92,-28.65,-22.61,-48.18,2
7.33,0.76,5.68,-16.06,-15.14,87.46,7.43,4.88,7.98,-12.91,57.03,-62.57,2.77,2.24,4.32,42.15,-25.05,-59.9,2
4.18,0.46,4.63,-57.56,-357.42,987.79,4.43,2.03,4.38,383.08,-466.4,1018.91,2.92,0.59,1.62,-133.64,183.93,1072.37,2
1.48,0.76,2.53,-10.69,-5.86,-59.51,0.98,0.38,2.58,-2.17,-11.33,70.24,1.12,0.44,0.72,-48.19,27.19,116.86,2
-1.07,0.31,2.08,8.84,-12.69,57.19,-0.67,0.38,3.03,11.99,18.95,-167.06,0.52,1.04,-0.18,-7.17,-9.43,-63.32,2
-1.97,0.31,0.58,6.4,0.49,160.21,-2.47,-1.27,0.48,21.76,-19.63,98.56,-0.53,0.29,1.17,17.73,-3.08,-81.87,2
-1.52,0.76,0.58,16.17,-32.22,-415.96,-3.22,-1.72,-1.02,66.19,-122.65,229.91,-2.03,-0.61,1.47,-196.14,37.94,99.28,2
-0.62,1.51,-0.32,504.94,102.54,-72.21,-2.47,-0.97,-1.02,-453.83,352.44,-449.29,-0.83,-0.61,-0.48,-135.1,-195.46,-957.85,2
-0.92,0.91,0.73,17.15,-51.27,-172.79,-2.92,-0.97,-2.52,9.55,11.62,35.09,-1.13,0.44,2.22,-17.91,6.69,131.51,2
-0.47,0.91,-0.47,32.28,32.23,-44.87,-1.42,0.68,-0.42,7.6,89.26,-5.93,-0.98,1.34,4.17,-67.23,36.96,-50.62,2
1.03,0.76,-1.07,5.91,-14.65,146.05,0.98,0.38,1.08,-56.86,58.99,6.77,1.12,-0.31,3.27,-67.23,7.17,-58.43,2
-0.32,0.76,-1.52,-27.29,225.59,-1350.53,2.18,1.58,1.08,-32.44,332.91,-886.79,0.37,0.14,2.52,-36.47,30.12,-346.52,2
-0.47,0.91,-0.47,-3.85,4.88,-36.08,0.23,0.38,-1.92,4.67,-4.49,15.55,-0.38,0.14,-0.48,-11.57,-1.13,1.63,2
0.73,0.46,-1.22,-0.43,-1.46,4.45,1.13,1.28,0.93,8.57,0.39,1.39,0.22,-1.21,-0.93,10.41,2.78,-3.75,2
-0.62,0.31,-0.32,-3.85,-8.3,4.45,-0.07,0.98,0.18,9.06,-12.3,10.67,-0.38,-0.91,-0.48,21.64,-18.22,-38.9,2
-0.62,0.31,-0.62,-0.92,0,-2.87,0.83,-0.52,-0.27,-19.26,-0.58,-24.97,1.57,-0.31,0.27,-23.77,13.52,12.37,2
1.48,1.06,-1.52,-7.76,-5.37,-17.03,-1.27,-0.22,-0.27,6.62,-19.14,-106.03,0.22,1.04,-0.63,17.73,0.34,-35.48,2
-0.02,-0.29,0.28,-11.66,2.93,31.79,1.58,0.23,0.18,3.2,-2.05,8.23,1.12,-0.31,-1.08,6.01,-8.94,-21.32,2
0.13,-1.19,-0.32,0.06,4.4,-0.43,0.38,-0.22,0.18,-5.1,4.79,-15.7,-1.43,0.29,-2.43,3.57,-4.06,-6.19,2
0.73,0.16,-1.67,-11.66,-1.95,-31.19,-0.37,0.53,-0.57,-11.45,8.2,-7.88,0.22,-0.76,-0.93,-8.64,-4.54,27.99,2
1.18,0.16,-0.47,-2.87,1.95,5.92,0.53,-0.37,-0.87,5.15,1.86,24.83,0.97,-0.76,0.87,-5.71,16.94,-0.33,2
-0.92,-0.59,-0.47,3.47,-6.35,18.12,1.58,-0.97,-0.27,-3.15,0.39,-15.7,0.52,-1.21,0.57,17.24,0.34,-28.65,2
-0.32,-0.44,-0.32,-1.41,-10.74,-2.38,0.53,0.68,-0.42,-5.1,5.76,-11.3,-1.43,0.29,-0.63,-6.68,-3.08,35.32,2
-0.92,-0.29,-1.67,-1.9,-6.83,-8.73,0.38,1.28,-1.02,5.15,-3.51,28.74,-0.23,0.59,-0.93,4.55,-3.08,-6.67,2
-0.02,0.46,-0.02,-4.34,-5.86,-10.2,-0.97,-0.82,-1.17,11.99,2.83,-3.49,-0.23,0.59,0.87,-3.75,-3.08,3.58,2
-0.02,0.16,-0.47,19.59,-2.93,-8.73,0.38,-1.72,1.23,-13.89,8.69,-36.69,-0.38,-1.36,-0.78,-9.12,7.66,20.18,2
-0.47,-1.04,0.28,10.8,8.3,12.26,0.53,-1.12,-1.62,3.2,5.76,18.97,-0.23,0.59,-0.63,11.38,10.1,-23.76,2
0.43,0.16,-0.02,-7.76,-1.46,-20.45,0.23,-0.07,-0.42,4.18,0.88,-23.51,1.12,-0.61,-1.53,-15.96,-7.47,27.02,2
0.58,-0.89,0.13,2.01,-4.88,23.98,0.53,0.38,0.33,7.6,1.37,14.09,-0.23,-1.21,-0.18,8.94,6.69,-17.42,2
-0.47,0.16,-0.02,-2.87,-2.93,3.47,0.53,1.13,-0.87,-13.89,7.23,-24,0.22,-0.46,1.17,-7.17,-4.06,5.53,2
0.58,0.31,-0.32,5.91,7.33,23.01,-0.37,-0.52,-0.27,4.18,-8.89,4.81,-0.38,-0.31,-0.03,4.06,2.78,13.83,2
0.43,-0.29,-0.02,-9.71,2.44,6.4,-0.82,0.23,0.48,-0.22,11.62,8.72,-0.38,-0.61,0.27,-11.57,10.1,10.41,2
-0.47,-0.59,0.73,3.47,7.81,14.71,-1.42,0.38,-0.12,-1.19,9.18,-7.88,-0.23,0.59,0.57,-3.26,-16.26,-34.51,2
1.18,-1.49,0.73,3.96,-5.37,-25.82,0.53,-0.37,-0.87,0.76,7.72,6.28,-0.23,-0.01,0.12,-14.01,12.06,27.99,2
-0.92,-0.29,-0.47,-0.92,-7.81,5.43,-0.22,-0.07,0.78,-1.68,-10.84,1.88,-0.53,0.59,-0.63,-2.29,-1.13,-16.93,2
1.18,-0.59,-0.92,-9.71,-6.35,-7.76,0.53,-0.07,0.78,-4.61,-1.56,-8.37,-0.08,-0.31,0.27,9.43,-11.87,-21.32,2
1.03,-0.14,1.33,-6.29,17.58,-3.85,-0.37,0.98,1.98,6.62,9.18,3.84,-0.08,0.89,-0.03,-8.64,-1.61,11.88,2
-0.47,-1.49,-0.02,-9.22,-3.9,4.94,0.23,-0.82,0.78,-12.42,9.18,-1.54,0.37,-0.31,-0.48,9.92,1.8,-0.33,2
0.58,0.31,0.13,-2.87,-7.32,0.54,-0.22,-0.07,1.08,-7.54,-11.81,4.32,-0.08,0.14,0.72,-18.89,-9.43,-19.86,2
-0.92,-0.29,-0.47,2.01,-1.95,-1.9,-0.67,0.38,-0.12,-6.56,5.76,-1.05,-0.53,-0.01,0.12,-14.98,0.83,8.46,2
0.13,1.51,-0.32,-2.39,0.98,0.06,-0.97,0.38,-1.17,9.55,3.32,-6.91,0.37,-0.61,0.27,10.41,2.78,-6.19,2
0,0.74,-0.97,-0.15,-0.23,-0.01,-1.03,0.57,-0.05,-6.07,-4.56,6.15,-1.42,0.61,-1.2,-20.1,2.13,3.59,2
0.3,-1.06,0.38,-4.06,-2.18,-0.01,0.32,0.87,0.25,7.6,-1.63,5.67,0.83,0.46,0.15,-16.2,0.18,14.82,2
-0.15,1.34,0.08,4.24,-2.18,-20.03,-1.63,0.42,-0.2,-1.68,-4.56,6.64,1.13,-0.89,-0.3,5.29,1.64,4.57,2
-0.45,0.74,0.23,-9.43,7.09,35.15,-0.13,-0.63,-0.5,7.11,-0.65,-5.56,-0.07,-0.29,0.15,2.36,-13.98,-12.52,2
-1.2,0.29,0.23,9.13,-8.04,-44.44,-1.03,-0.18,0.4,-18.28,-1.14,49.61,-0.82,-0.59,0.9,-14.24,12.38,66.58,2
-0.15,-1.06,0.83,2.29,0.26,-61.05,1.07,1.17,-0.5,-4.61,4.72,-7.03,-1.42,0.31,0.3,7.73,3.11,-2.27,2
0.3,0.89,-0.82,-6.5,2.21,97.16,0.32,-0.33,0.55,1.25,5.21,-42.67,0.83,0.16,0.9,57.53,-17.4,-98.46,2
-1.2,0.29,0.23,13.03,2.21,-63,-2.08,-1.08,0.55,-12.91,-25.55,120.9,0.38,0.16,0.45,-30.36,14.34,86.6,2
-0.15,0.44,0.38,54.05,-35.39,-125.5,0.77,-1.38,-0.95,36.41,41.34,-186.23,0.38,-0.29,0.15,-133.87,31.43,203.3,2
-0.75,0.29,1.28,-66.56,82.78,681.63,-0.28,0.27,0.85,-20.72,43.3,-131.05,-0.07,-0.29,-0.3,388.59,-172.68,-801.09,2
0.3,0.14,2.03,-98.3,6.6,47.84,0.92,0.57,1.6,35.92,1.79,-152.54,0.53,0.31,-0.75,71.21,-59.39,-243.48,2
0.9,-0.91,4.88,9.13,20.76,28.8,-1.63,3.12,2.5,-25.61,28.16,28.61,-0.07,1.66,-0.3,48.75,-53.54,-169.26,2
1.65,-2.11,3.83,56,-20.74,-86.92,-2.68,2.52,3.85,-61.74,45.25,-217.97,-0.37,1.66,0.45,21.89,28.5,78.3,2
2.4,-1.51,5.18,31.1,12.46,151.36,-0.13,3.12,5.95,-1.19,58.92,-154,1.13,1.21,2.4,-167.56,69.02,47.54,2
2.55,-0.46,5.33,-512.85,253.68,471.67,-0.13,1.92,5.2,243.93,-300.94,1018.79,0.98,1.06,2.55,-351.64,349.79,343.44,2
-0.45,0.74,5.33,24.75,-7.56,-96.69,-1.33,1.17,4.75,-10.96,29.62,-136.42,0.83,2.71,-0.6,-19.13,-21.8,25.08,2
-0.6,-1.06,4.43,-24.08,24.18,267.08,-1.48,0.57,4.15,-13.4,9.12,23.24,-0.22,1.36,0,186.44,-68.67,-323.07,2
-1.2,-0.46,3.38,9.13,-18.3,-268.08,-1.93,-0.48,2.65,1.74,-50.94,156.54,-0.52,2.11,1.35,-136.8,25.08,185.23,2
-0.75,-0.91,1.73,5.22,5.63,-90.34,-1.33,-0.33,0.25,-15.84,178.06,-338.57,-0.22,1.36,1.35,67.3,-28.63,-21.8,2
1.05,0.14,0.83,49.17,21.25,145.01,-1.33,0.12,1,27.13,-32.39,82.33,0.53,0.61,1.8,-384.85,137.38,139.82,2
1.65,1.04,1.73,-22.12,3.19,132.31,0.77,3.42,0.55,-0.7,-55.34,161.92,0.83,1.96,3.75,181.56,-48.65,-71.11,2
1.95,2.09,1.28,-37.26,-30.02,20.01,2.72,2.67,1,-50.51,24.25,-200.88,0.98,0.61,2.55,-50.86,-0.31,72.44,2
0.6,0.89,0.08,332.37,-170.15,513.17,2.57,1.77,2.35,46.17,104.33,-111.52,0.38,0.91,3.15,173.75,-5.68,-502.75,2
-1.2,0.29,0.23,14.5,-5.6,-8.31,0.17,0.57,-0.05,-3.63,2.28,18.85,-0.22,-1.19,1.35,3.82,13.85,-8.13,2
-1.65,-0.91,-0.22,-1.62,2.21,22.94,-2.08,0.12,0.55,15.41,-13.34,41.31,0.53,0.01,1.05,25.8,-9.59,-27.17,2
0.45,-0.91,-0.97,4.24,-0.72,8.29,0.17,-0.18,0.4,-4.61,9.6,-12.89,0.53,-1.19,-1.2,-17.17,11.41,19.71,2
-0.15,-0.31,1.28,3.75,3.68,-3.92,0.77,0.12,-0.5,-10.47,3.26,-6.54,-0.52,1.06,1.05,-4.97,0.66,-2.75,2
-0.45,-0.91,0.68,-6.99,-3.16,-9.29,1.07,0.12,0.55,-1.19,5.7,-8.01,0.53,0.61,0,-6.43,8.96,39.73,2
1.05,0.44,0.83,-6.99,28.09,17.08,-0.28,-0.18,0.85,4.18,-8.46,1.76,0.83,0.46,0.45,9.68,-8.13,-41.33,2
0.3,1.34,0.38,15.47,-7.56,-3.92,-1.03,0.27,0.85,-1.68,15.46,-5.56,-0.52,0.01,-0.45,-8.87,-7.64,17.75,2
0,-0.46,0.23,4.24,-3.16,-1.48,0.17,-0.18,-0.05,5.16,-9.93,14.45,0.38,0.16,-0.3,-6.92,2.13,-20.33,2
0,0.74,-0.22,13.03,4.16,-11.24,-0.88,-0.63,-0.5,5.16,9.6,-17.77,-0.22,0.61,-0.45,9.2,-1.29,8.48,2
-0.45,0.29,-0.22,-3.08,3.19,1.45,-0.88,0.42,-0.2,-2.17,-4.56,12.5,-0.07,-0.29,0.9,2.85,0.18,-13.01,2
0.3,-0.31,0.38,5.71,-12.93,-9.78,0.47,-0.93,-0.35,16.39,2.77,-13.38,-2.92,-1.19,1.35,-13.27,6.04,22.64,2
0.3,-0.31,0.83,0.83,-1.21,17.57,-0.73,-0.48,-0.35,11.99,-4.56,8.6,0.38,-0.59,-0.3,16.52,-4.71,-20.33,2
-0.75,-0.46,-0.22,-3.57,-1.21,-1.48,-1.33,0.12,-0.95,10.53,-5.53,-4.59,-0.52,1.36,-0.45,-3.01,-3.24,8.48,2
0.6,-0.31,1.28,-3.08,-2.18,-8.8,0.17,0.27,0.85,-2.17,-1.63,17.38,-0.22,0.31,0.75,-16.2,2.13,26.05,2
0.6,0.44,0.38,0.83,8.07,1.45,0.17,-0.93,-0.35,9.55,12.05,-27.05,-0.52,-0.74,0,3.34,-7.64,-34.49,2
-0.6,-0.31,0.38,9.61,-5.11,-10.75,0.32,-0.33,-1.4,-1.19,-0.65,17.87,0.23,0.31,0,-1.06,12.38,16.29,2
-0.15,0.14,-0.37,-4.55,-4.14,6.83,-1.03,0.27,-0.05,-7.05,12.53,-18.75,0.83,1.21,0.45,12.61,7.99,-16.91,2
0.6,-1.06,0.38,-13.33,-10,-0.99,-0.73,0.57,-1.1,-2.17,7.16,14.45,-0.52,0.01,1.35,-10.82,-4.22,2.13,2
0.6,-0.31,0.38,14.5,0.26,-11.24,-0.13,0.12,0.55,0.27,1.79,-8.01,0.98,-0.74,0.75,-10.82,-4.71,12.87,2
-0.75,-0.16,0.23,0.34,12.46,0.48,0.47,0.27,0.4,-5.59,-7.97,13.97,0.38,0.91,-0.9,5.29,-4.22,-3.24,2
-0.45,0.74,-1.42,-6.01,3.68,3.9,0.17,-1.23,-0.35,-13.4,-10.42,11.04,0.38,0.46,-0.9,1.38,-12.03,-13.01,2
-0.15,0.14,0.08,-9.43,4.16,-7.82,-1.03,-0.48,-0.8,-13.89,8.14,-1.17,0.38,-0.89,0.9,-3.99,-0.8,5.06,2
-0.75,-0.16,0.98,5.71,-1.7,2.43,-0.43,0.12,1.3,9.55,-3.09,-5.08,-0.97,0.01,-0.45,-3.99,6.04,-12.03,2
0.6,1.34,0.83,18.4,0.75,-4.89,0.17,-0.93,-0.35,7.6,1.3,7.13,-0.07,0.16,0.9,-0.57,-2.75,11.41,2
-0.45,-0.16,-0.97,2.78,-10.97,-3.92,-0.13,0.42,0.25,-0.21,12.05,-1.66,-0.07,1.21,0.9,-5.45,0.18,5.06,2
1.35,-0.46,0.68,6.68,-5.6,7.8,-0.43,-0.63,-0.95,2.23,3.26,10.06,-0.82,-0.59,-0.3,13.1,-3.73,-17.89,2
0.45,1.04,-0.22,-10.41,-0.23,3.41,0.77,1.17,-0.2,-18.77,-1.14,0.78,0.53,0.01,0,-5.94,6.52,7.99,2
-1.46,-0.3,0.03,2.32,1.17,-11.48,-0.27,0.15,-0.33,6.59,-10.66,48.35,0.53,-0.55,-0.47,-25.95,16.22,64.57,2
0.19,0.15,0.33,-1.09,2.15,-30.03,0.78,0.75,-0.93,-2.2,2.04,-47.35,0.98,-0.85,1.03,-22.04,4.02,21.11,2
-1.46,-0.3,0.03,-6.46,-2.25,28.07,-0.87,-0.75,0.27,8.06,16.2,-5.36,0.98,-0.55,0.28,42.9,-4.28,-81.92,2
-0.71,-1.05,-0.42,-5,8.01,-49.57,0.93,0.9,-0.03,14.4,8.39,-6.34,-2.32,-0.4,0.13,28.74,-16.98,-56.53,2
-0.71,-1.05,-0.42,-19.16,-2.25,-27.1,0.18,0.15,-1.08,-11.47,-4.31,-9.27,0.98,-0.1,-0.47,13.11,-1.84,-23.33,2
0.34,1.5,0.18,-24.04,37.3,132.56,0.18,-0.3,0.87,25.63,-41.42,32.73,1.43,-1.6,-0.47,8.23,-10.14,-15.02,2
0.49,-0.6,0.33,70.68,71.48,-179.45,1.53,0.75,0.57,-50.05,-177.16,570.32,0.53,-0.85,-0.02,-110.42,29.9,-7.7,2
0.79,-0.9,-1.02,111.7,65.62,414.3,0.93,-0.3,0.42,-39.31,70.89,329.11,-0.07,0.35,-1.37,-371.16,106.56,819.94,2
0.49,-0.3,1.23,-9.88,1.17,-53.47,1.08,-0.75,-0.93,21.24,4.48,31.26,-0.37,0.8,1.63,-30.34,22.08,75.31,2
-0.56,-2.1,0.93,39.92,14.35,57.37,-0.42,0.3,0.27,-7.57,-43.86,-69.81,0.83,1.1,0.13,79.03,-59.46,-85.83,2
-0.56,-1.65,0.63,24.79,57.81,22.7,1.98,1.8,2.52,7.08,-9.19,117.2,0.98,0.95,1.03,8.72,-39.93,-82.9,2
-3.26,-0.6,-1.17,17.95,-4.69,-189.21,1.98,0.3,0.57,9.03,1.55,105.97,0.83,1.55,1.18,26.79,-0.38,78.73,2
-2.51,-0.15,0.93,-102.66,75.88,806.88,0.93,0.9,1.17,140.38,214.44,-1061.51,-0.52,0.2,0.73,143.97,175.89,80.68,2
0.79,0.3,2.58,15.02,9.47,29.05,-0.87,1.05,1.02,-2.2,5.46,-20.5,0.53,1.25,-0.77,16.04,15.25,23.06,2
1.39,0.9,2.28,-8.91,5.08,11.96,0.33,1.5,2.07,-10.5,-14.56,127.45,2.78,1.1,-0.32,44.36,-11.12,-68.25,2
1.54,-1.2,0.93,35.53,31.44,157.47,1.08,1.05,2.07,-6.1,27.92,-23.43,1.73,0.5,-0.47,45.34,-13.07,-108.77,2
1.24,-0.45,1.68,-76.29,43.65,232.17,0.93,-0.3,1.62,83.25,-100.01,254.41,0.98,0.95,0.73,249.44,-133.19,-616.59,2
-1.16,-0.3,2.28,53.59,-45.22,-138.92,0.18,0.15,1.62,-37.35,165.61,-220.69,1.13,0.8,-0.32,-382.88,81.65,641.23,2
-0.86,-1.65,3.33,5.74,20.7,-44.19,-2.97,1.5,1.32,-125.73,98.23,224.13,0.23,1.7,0.73,-63.06,89.95,287.71,2
-1.31,-2.85,5.73,-5.98,44.14,-71.05,-0.72,2.1,3.42,-31.98,-2.84,28.82,0.23,1.25,1.03,-65.5,4.51,32.83,2
-0.56,-1.2,4.83,-14.28,29.98,-141.36,-2.37,0.15,4.62,2.2,32.8,37.61,1.13,0.05,2.38,-90.4,-0.87,-46.76,2
-0.71,-1.05,2.73,-159.79,60.74,-220.95,-2.37,2.1,1.92,-17.33,138.76,170.91,0.23,-0.1,0.28,-104.56,-43.83,138.3,2
0.94,0.15,0.03,-4.02,3.61,-2.69,-0.27,0.15,1.17,-0.73,289.64,-1524.4,0.83,0.35,0.13,-1586.98,512.32,1072.32,2
0.49,0.15,0.33,2.81,-7.13,-18.32,0.18,-0.3,-0.03,1.22,-7.73,-6.82,0.53,-0.85,-0.02,-20.09,11.34,7.92,2
0.79,-0.45,-0.57,-3.54,10.94,-7.57,0.48,0.15,-0.03,0.24,-6.26,0.99,0.53,-0.55,-0.02,0.42,9.88,-6.24,2
0.79,0.3,-0.57,2.32,4.59,13.42,-1.62,-0.75,1.77,-5.13,-6.26,-12.68,0.83,-1,-0.32,3.35,6.46,-12.58,2
0.49,-1.05,-0.42,1.84,3.61,-8.55,-0.72,-1.05,-0.78,7.57,-13.59,-3.41,0.38,-0.4,0.88,-13.74,-4.77,11.34,2
0.19,0.15,0.03,-6.95,11.91,-2.69,-0.27,-1.35,-0.03,1.71,7.9,8.31,-0.37,0.05,-0.32,6.28,1.58,2.07,2
0.49,0.45,0.33,3.3,7.03,-26.62,-0.12,0.3,-0.93,-5.62,11.32,-1.45,-0.37,0.05,-1.67,-8.86,8.41,5.97,2
0.34,1.05,0.18,-7.44,1.66,5.12,-0.72,0.45,-0.33,10.01,12.78,3.43,-1.12,-0.4,0.88,15.56,0.6,1.58,2
-0.56,-0.45,-0.27,7.21,9.47,-17.34,0.33,-0.45,-0.18,-9.03,-4.8,-0.48,0.23,-0.55,-0.47,-6.91,9.39,27.94,2
-0.26,0.45,-0.42,-6.95,4.1,6.59,-0.42,-0.45,-0.18,-14.89,5.46,-21.96,-0.52,0.2,0.28,-4.95,4.51,-7.21,2
-0.26,0.15,0.33,7.21,8.98,-4.16,0.48,-0.6,0.42,8.54,3.5,13.2,-0.52,0.5,-0.02,-3,1.58,-5.26,2
-1.16,-1.05,0.33,1.84,-11.53,-6.6,-0.12,-0.75,-0.48,1.22,-2.84,27.84,0.83,1.55,-0.32,-2.51,11.83,5.48,2
-0.86,-0.45,-0.27,-10.37,12.4,2.19,-1.02,-0.3,0.42,-0.24,0.09,-25.38,-0.82,0.35,-0.62,-0.56,-4.28,4.51,2
-0.56,0.3,-0.27,4.77,0.19,10.49,-0.72,-0.3,-0.03,-13.43,3.5,21.98,-0.07,-0.4,-0.32,6.77,4.02,-5.75,2
-0.86,0.75,0.18,-9.88,-0.78,-2.2,-0.42,0.75,-0.93,-3.17,4.48,-14.64,0.83,-0.4,-0.62,1.4,10.36,15.25,2
-0.11,-0.45,-0.27,1.35,6.05,5.12,0.18,-0.3,0.42,7.08,8.39,-9.75,-0.07,-1,-0.62,5.3,-1.84,-7.7,2
-0.26,-0.6,-1.62,-2.07,-0.29,4.15,0.33,0.75,-0.93,13.43,-5.28,19.54,-0.97,0.95,0.73,-3.98,4.99,-0.38,2
0.94,0.45,0.03,7.7,-11.04,0.73,-0.27,-0.6,0.87,-19.29,3.5,-5.85,-1.72,1.25,0.73,7.25,-0.38,9.39,2
0.79,0.3,0.18,1.84,3.12,1.22,0.33,-0.45,-0.18,9.03,-1.87,-2.92,0.83,-0.4,0.43,-5.93,-9.17,-1.84,2
-0.11,-0.15,-0.27,-3.54,0.19,-6.6,-0.12,0,-0.48,-9.52,0.09,11.24,-0.37,0.35,0.88,3.35,7.92,5,2
-0.26,-0.6,0.03,-2.07,-5.67,-0.25,0.18,-0.6,-0.03,-5.13,2.53,2.45,0.53,-0.55,0.73,-3.98,3.04,4.51,2
-0.26,0.15,-0.87,-4.02,-0.29,-3.18,-1.02,-0.3,0.42,2.69,3.02,15.64,-0.37,0.35,0.88,-3,-15.51,0.11,2
0.79,1.05,0.93,11.6,4.59,-2.69,-0.87,-0.45,0.57,-6.59,-6.75,6.36,0.53,0.95,0.28,-5.93,-4.77,-7.21,2
-1.16,-0.3,-0.42,2.32,7.52,-3.67,0.33,-1.2,-0.48,-5.62,-3.33,-1.45,-0.07,-0.4,-0.32,-2.02,-6.73,-16.98,2
0.49,0.15,0.78,4.28,1.17,5.61,-0.72,0.45,-0.33,7.57,8.88,-8.78,-0.97,-0.85,1.33,-7.88,6.46,-1.84,2
-0.56,-0.15,0.93,-7.44,7.03,-2.2,0.48,-1.05,0.42,-4.15,12.29,-4.38,-0.07,-1,-0.92,-3,12.81,14.76,2
0.34,-0.45,-0.27,14.04,-3.22,-9.53,-0.27,-0.3,0.42,8.06,6.92,0.5,0.53,0.95,0.28,-11.3,6.46,9.39,2
-0.11,0.3,0.18,-5.98,4.1,6.1,-0.27,-0.6,-0.03,-4.64,4.48,4.41,-0.37,-0.7,-1.67,2.86,1.58,-1.35,2
-0.03,0.4,0.15,8.17,3.02,0.03,0.83,-0.62,-0.86,-3.93,3.88,-1.45,0.8,-0.62,-1.14,-2.86,2.23,12.83,2
0.72,-0.65,1.35,-7.94,10.35,20.54,-1.57,-1.07,-0.41,1.93,1.44,26.38,-1,0.28,-0.69,11.3,-7.54,-9.63,2
0.72,-0.35,0.9,-5.01,-1.86,-47.33,0.08,-0.62,-0.11,-1,1.44,-21.96,0.35,-0.32,-0.54,-27.76,24.2,57.27,2
0.42,0.1,0.9,-7.94,5.46,31.77,-0.52,1.03,-0.26,-3.93,8.27,-10.24,-0.1,0.13,0.21,19.6,-9.98,-42.34,2
0.42,-0.65,-1.05,7.68,13.76,22,0.08,-1.07,-0.41,-2.46,11.69,30.78,1.7,-0.47,0.51,27.41,-6.07,-38.92,2
0.12,0.7,1.5,20.87,8.88,39.58,-0.97,-0.77,-1.01,5.84,-8.82,16.13,0.95,0.58,-0.24,-35.09,11.02,40.67,2
0.42,-0.35,0.9,-12.82,21.58,-2.41,-0.22,-0.02,-0.26,0.96,-3.44,1.97,0.5,0.28,-0.24,14.72,-7.54,-7.67,2
-0.33,0.7,0.3,5.24,-0.89,82.55,-0.52,0.28,0.19,0.96,3.39,17.59,0.35,0.43,-0.09,20.58,-19.26,-56.99,2
1.02,-0.2,-0.15,5.73,2.04,-121.55,-0.37,-0.32,-1.16,-9.3,14.62,3.92,-0.4,0.43,0.21,-29.72,9.06,54.83,2
-0.33,-0.95,1.5,-33.82,79.19,270.05,0.38,-0.32,0.34,8.77,0.95,-64.44,1.7,-0.47,-0.99,-21.9,3.69,-33.07,2
-0.03,-0.35,0.15,-63.61,106.54,441.92,0.23,-1.22,-0.26,9.74,-174.83,805.19,-1.15,-0.32,0.21,334.05,-185.27,-771.35,2
0.12,-0.95,1.05,80.93,3.51,-68.33,-1.12,0.13,1.09,72.73,-57.64,17.59,0.2,0.28,0.81,221.26,-166.72,-445.66,2
0.42,-0.35,2.4,-18.19,33.29,-11.2,-1.57,-1.07,-0.11,13.16,17.06,75.21,0.35,2.23,0.21,-28.25,30.06,38.22,2
0.12,0.7,2.25,65.79,4,-14.13,-2.02,-1.37,0.79,-52.27,22.92,-174.79,1.55,1.93,2.16,61.1,-144.74,-390.49,2
-0.93,0.1,0.9,24.77,28.9,194.37,-1.12,-0.62,1.54,-63.99,27.81,24.43,-0.4,1.63,2.91,222.24,-53.44,-249.37,2
1.02,-1.25,3,617.06,231.54,988.25,-2.02,-0.62,3.79,-0.51,209.45,103.53,-0.55,2.53,3.06,-981.86,55.94,1072.34,2
0.42,-2.6,4.5,-14.29,24.99,159.7,-0.97,-1.52,5.14,2.42,-13.21,61.05,0.8,2.23,2.91,79.66,-35.37,-172.71,2
0.57,-2.45,2.7,2.8,9.37,37.63,0.38,-0.32,4.09,19.02,25.36,-32.21,1.55,3.43,0.96,-19.46,3.2,29.43,2
3.12,-1.7,1.5,-20.15,77.24,373.08,0.23,1.78,0.94,4.86,17.55,-83.97,0.2,2.53,1.56,181.22,-70.04,-373.89,2
0.57,-0.2,1.8,58.95,19.13,0.52,1.73,1.63,-0.11,93.73,-75.22,3.43,0.2,1.78,-0.24,138.74,-114.96,-249.86,2
0.57,0.7,0.75,-16.73,-6.26,-81.51,2.03,1.63,0.34,26.35,33.18,-206.04,0.95,0.58,1.56,-12.14,-0.7,9.9,2
2.52,2.35,-0.3,-85.09,73.82,199.74,1.28,0.43,1.84,36.6,12.18,-27.82,-0.4,0.43,2.91,149.97,-62.22,-250.84,2
-0.93,0.85,0.15,-190.56,-10.65,-882.78,0.08,0.88,-0.41,133.77,-152.86,499.04,2.45,1.03,-0.24,-83.92,-96.89,-40.88,2
1.17,-0.35,-0.3,3.29,-3.33,8.82,1.28,0.43,0.34,-39.57,-587.92,1016.62,-0.1,0.88,-0.84,579.17,-270.72,97.31,2
0.42,-0.65,-0.3,-8.92,-4.79,9.8,-0.82,1.63,-0.11,13.65,0.46,-28.31,-0.4,-0.32,0.21,-16.53,6.13,35.29,2
1.17,-0.35,0.15,-1.11,-5.28,-0.46,0.23,-0.77,1.24,5.35,4.86,-5.36,0.35,0.88,-0.09,-8.72,5.65,-3.77,2
-0.33,-0.5,-0.45,4.27,-9.19,-9.74,-0.22,-1.52,-1.01,-11.74,4.37,11.73,0.2,1.03,-0.24,-13.11,9.55,21.62,2
-0.63,0.7,0.75,6.22,14.74,3.94,0.38,0.13,-0.11,-13.69,-0.03,14.17,0.35,-0.92,-1.14,-10.18,2.72,2.58,2
0.42,0.1,-0.3,0.36,-4.79,-34.64,0.23,1.03,-0.26,-21.51,7.79,17.1,0.5,0.28,0.51,-2.37,8.09,16.25,2
0.57,0.25,-0.15,1.82,-6.26,-0.46,0.83,-1.37,1.54,-1,2.42,3.43,0.35,0.43,2.16,-0.91,3.2,0.14,2
-0.48,-0.65,0.9,-12.82,5.46,9.31,-0.22,-0.02,-1.01,-0.02,1.93,12.22,0.35,0.13,0.21,3.49,-4.12,-8.65,2
0.72,0.1,0.45,-7.94,-11.14,9.31,0.08,0.13,-0.41,-3.93,10.72,-13.17,0.2,0.28,-0.24,7.88,-9.98,-6.21,2
-0.48,-0.35,-0.3,-13.8,-2.35,1.98,0.08,-0.62,-0.11,-7.35,4.37,0.01,-1.15,-0.62,-0.54,9.83,2.23,-11.58,2
-0.63,-0.5,-0.45,5.73,-1.37,5.4,0.38,-0.32,0.34,1.44,-7.84,2.94,-0.55,0.28,-0.69,-3.35,-3.63,1.11,2
0.42,-0.35,0.9,13.54,4,4.91,-0.22,-0.77,-1.01,8.77,0.95,-2.43,0.2,-0.02,0.51,4.46,5.65,3.56,2
-1.08,-1.25,-0.15,8.17,6.44,-13.64,0.68,-1.22,0.19,7.3,10.72,-9.75,-0.25,0.58,-1.74,-9.7,-0.7,26.02,2
0.57,-0.2,0.75,11.1,-2.84,7.84,0.38,0.43,-0.11,10.23,-0.03,0.01,-0.4,0.88,-0.09,14.72,-2.65,-14.02,2
-0.33,-0.5,-0.15,-0.13,-1.86,3.94,1.28,-0.62,-1.16,2.91,7.79,-0.96,-0.1,0.13,-0.84,-0.42,3.69,-10.6,2
1.02,0.25,0.75,-5.99,12.3,-11.2,-0.52,0.73,-0.26,12.19,2.9,-1.45,-1.45,0.28,-0.69,1.05,-10.96,9.42,2
0.42,-0.35,-0.75,10.13,11.81,5.89,-0.22,-0.47,-0.26,-2.46,-3.93,3.43,-0.25,0.58,0.81,1.05,-4.12,2.09,2
-0.48,-0.35,-1.05,0.36,5.95,-6.32,0.68,0.28,-0.26,2.91,-6.86,-1.45,0.35,0.13,0.66,-1.4,2.23,-9.63,2
-0.48,-0.35,-0.3,0.85,-0.4,-17.06,-0.22,0.73,-1.01,8.28,-12.72,-13.66,-0.55,-0.47,0.06,-18.97,14.92,26.99,2
0.42,0.85,0.45,-8.92,13.27,-6.32,-1.42,-0.02,0.19,-3.44,-5.4,12.71,-0.55,0.58,-0.69,-15.07,8.09,13.81,2
-0.33,-1.25,0.3,-12.34,4.49,7.35,0.08,-1.37,0.34,4.37,4.86,-6.82,-1,1.03,0.06,12.76,-12.42,-17.93,2
-0.33,0.7,-0.45,6.22,4.49,-0.95,0.68,-0.47,-1.01,2.42,-0.51,3.43,-0.4,-0.92,-0.09,-13.6,-7.05,24.06,2
-0.48,-0.65,0.45,5.73,4.97,-0.46,-0.37,-1.07,-0.86,4.86,-4.91,16.62,0.5,-0.02,-2.19,14.72,-8.03,-20.37,2
0.57,0.25,-0.9,-2.57,3.02,3.45,0.08,0.88,0.79,-12.72,8.27,-6.82,0.35,-0.32,-0.09,-8.72,9.06,19.18,2
0.57,0.7,-0.15,4.27,1.56,4.42,-0.37,-0.32,-0.41,-6.86,6.32,13.2,-0.1,-0.32,0.66,3,2.72,-0.35,2
0.12,-0.5,0.75,14.52,9.86,-7.78,-0.52,-1.22,-1.01,5.84,-9.3,-14.15,0.5,0.28,-0.24,-2.37,3.69,13.32,2
0.12,0.25,-0.15,-6.96,0.09,-0.46,-0.52,-0.77,0.19,-1,-1.98,13.2,-0.55,-0.02,-0.99,2.51,4.18,-3.77,2
-0.01,-0.4,-0.69,-13.62,-5,-9.62,0.92,1.03,0.9,4.93,-24.9,88.68,0.29,-0.77,-0.39,-20.9,8.18,51.68,2
-1.06,0.5,-0.54,9.33,-6.46,-41.36,-0.73,-0.92,-0.3,2.49,12.7,-71.96,-0.16,-0.02,-0.09,-57.04,-4.03,75.61,2
1.49,-0.25,1.11,-14.11,3.3,96.83,0.92,0.58,0.45,-10.69,-30.27,164.86,-0.31,0.43,-0.24,-12.11,22.34,83.42,2
2.09,-2.05,1.56,86.47,-44.55,-648.78,2.12,-0.17,2.7,47.42,-147.46,456.85,0.44,-0.32,-1.29,-365.14,131.72,615.65,2
4.79,-1.45,2.16,103.56,65.31,-166.85,3.92,4.93,5.25,13.72,135.74,-546.57,2.84,2.98,0.51,78.22,11.6,-142.65,2
4.04,-2.5,3.36,0.54,-0.12,19.19,4.52,8.53,10.8,13.24,25.39,-32.9,3.44,2.08,0.96,13.77,22.34,47.78,2
4.79,-2.2,5.01,-3.86,26.25,-47.22,7.82,13.33,16.05,4.45,13.67,47.67,4.64,4.33,3.21,5.95,11.6,32.15,2
4.64,-3.1,5.61,-47.8,15.51,-211.28,7.07,7.03,18,-28.27,90.33,-32.9,4.19,3.58,6.51,35.25,-27.46,29.71,2
3.74,-0.85,3.21,215.38,110.23,-14.01,4.82,2.68,12.45,17.63,-47.85,20.32,5.69,4.33,7.26,32.81,-40.16,-10.82,2
0.89,-1.6,3.21,14.7,-0.12,24.07,1.07,1.18,6.3,-442.82,657.23,-1224.79,1.49,3.28,2.16,-1586.33,1140.02,1072.13,2
-0.16,0.2,4.56,0.05,-3.54,20.17,-0.13,-0.62,3.75,-5.81,22.46,-103.21,0.59,2.08,1.71,22.07,-25.02,-92.85,2
-2.86,-0.1,1.26,9.81,31.13,174.95,-2.38,-1.97,1.95,9.33,-0.49,37.9,-1.66,-0.02,1.41,72.85,-44.55,-173.9,2
-1.66,-0.4,1.26,39.6,3.3,-241.55,-1.63,-0.32,1.8,3.96,-104,300.6,0.44,2.23,1.26,-64.36,4.76,-146.07,2
-2.26,-0.25,1.11,22.02,-104.61,-263.04,-1.93,-0.47,0,-27.29,100.59,-514.34,-1.36,-0.47,0.96,2.05,-4.03,-78.2,2
-0.61,2.15,-1.29,58.15,-1.58,-86.28,-2.68,-0.47,-2.25,21.05,-10.25,1.28,-0.76,-0.32,0.81,28.9,141.48,580.98,2
0.89,0.8,-1.14,-1.42,30.16,79.74,-1.63,2.68,-0.45,-3.85,0.98,-72.45,1.64,-0.62,2.31,26.46,-19.16,-50.37,2
-0.01,1.55,-0.39,60.6,5.25,346.83,0.47,1.48,0.45,-26.8,-2.93,-2.63,-0.01,0.43,3.06,-4.3,-46.51,-88.94,2
0.89,-1.15,0.06,-186.96,-102.66,989.34,1.37,1.03,1.2,26.42,332.03,-1205.75,1.79,-0.02,3.21,203.22,-124.14,-758.86,2
-1.06,0.2,-0.09,-11.18,2.81,5.03,1.07,0.88,-0.9,-4.34,4.39,11.05,1.04,-0.77,-0.09,7.91,-0.61,11.64,2
-0.76,-0.4,-0.39,3.96,11.6,2.59,0.17,1.03,0.45,-5.32,-4.39,15.93,0.44,-0.32,-0.99,9.37,-0.61,-13.75,2
0.44,-0.1,-0.39,4.93,-2.07,5.52,-0.28,0.28,-1.05,-0.44,-1.95,-3.11,0.29,-1.22,-0.84,-12.6,3.3,7.25,2
-0.76,0.8,-0.39,-4.83,3.79,2.1,-1.33,-1.07,0.3,2.01,6.84,-3.11,-0.31,-0.62,-0.24,-8.21,-0.61,12.62,2
0.29,0.5,0.21,2.49,-10.37,-18.41,0.17,-0.17,0,-4.83,5.37,2.75,-0.91,0.28,-0.09,-0.39,-1.1,3.83,2
-0.61,-0.25,-0.09,-8.25,-9.88,-2.78,-0.88,0.88,0.6,8.35,-10.25,15.93,-0.76,-0.92,1.56,-6.25,-1.1,-5.93,2
0.29,-0.55,0.66,12.26,12.09,-14.01,1.97,-1.37,1.35,13.72,0.98,2.26,-0.31,0.88,0.06,0.58,-6.95,-3.49,2
-0.46,0.35,0.51,7.37,4.77,38.72,-0.28,0.28,1.2,0.54,-5.37,12.51,-1.36,-0.02,0.66,11.32,-3.54,0.9,2
0.89,-0.1,-0.39,7.37,2.81,-15.48,0.17,0.28,1.95,6.4,6.84,6.16,-0.46,-0.47,-1.14,-3.81,-0.12,6.76,2
-0.61,0.2,-0.09,-0.93,10.14,1.61,0.47,0.58,0,2.98,1.46,10.07,1.04,-0.47,-0.09,7.91,-6.47,-0.08,2
-0.76,-0.1,1.26,1.51,3.3,12.84,0.77,0.88,1.05,3.96,-3.42,-20.69,0.29,-0.02,-0.39,-18.46,11.6,-9.84,2
-0.76,-0.4,-0.39,-5.32,-4.02,3.08,-0.73,0.28,0.9,-7.76,-3.42,-4.09,-0.01,0.13,0.06,-3.32,-17.21,-0.08,2
-0.16,0.2,-0.54,-4.83,11.11,-11.57,1.37,2.23,-0.3,-6.3,0,12.51,-0.16,0.28,0.36,7.91,-1.58,9.69,2
0.59,0.2,-0.54,1.03,-6.95,2.59,-0.28,-0.92,-0.3,-5.81,6.35,-0.67,-0.76,0.13,0.51,1.07,8.67,-3,2
0.44,-0.1,0.51,-11.18,-4.02,11.38,0.17,0.58,-1.05,0.05,-1.46,19.84,-0.76,0.13,0.06,-6.25,-0.61,-10.82,2
-0.01,-0.1,0.51,-9.72,6.72,14.31,0.77,0.13,1.05,-5.81,5.86,-22.64,0.29,1.03,-0.09,6.44,-1.58,-14.72,2
0.89,-0.1,0.51,2.49,-14.28,7.96,1.37,-0.47,1.95,2.01,12.7,-7.51,-0.91,1.03,-0.39,3.02,-4.51,2.37,2
0.89,0.8,0.06,-6.3,13.07,-15.48,0.77,0.13,1.05,-14.11,-2.44,-10.93,0.44,0.88,0.06,-13.58,27.22,34.1,2
-2.26,-0.25,0.66,2.98,7.7,38.72,1.07,0.13,0.3,4.93,-0.49,28.14,1.49,-0.77,-0.09,17.18,-6.47,-38.65,2
0.44,0.35,0.06,-4.83,5.25,-0.34,-0.43,0.43,-1.35,-0.44,-1.95,-21.18,0.89,-0.62,-0.69,-2.84,-5.98,0.41,2
-0.46,-0.85,1.26,3.96,-8.91,-23.78,0.32,-0.32,-0.9,-8.25,-8.79,9.09,-0.01,0.13,0.81,-12.11,8.67,25.32,2
-1.06,0.5,0.66,-7.76,10.14,13.82,-0.73,0.28,-0.3,1.03,0.49,-14.83,0.59,1.33,0.36,8.88,-0.61,-27.91,2
-0.46,0.35,-0.39,21.53,-8.91,-18.9,-0.13,0.13,1.05,-5.81,-7.81,-11.41,-0.16,0.28,0.66,-10.16,9.16,28.25,2
-0.16,-1,0.66,-4.35,-15.25,6.49,0.77,0.13,0.3,9.33,6.84,3.72,-0.16,0.28,0.36,-0.39,-4.51,-9.84,2
0.89,0.8,-0.39,-0.44,-3.05,1.12,0.77,0.43,-0.15,2.01,0,-2.63,1.04,-0.02,0.36,19.62,0.37,-8.38,2
1.34,-0.4,0.06,-6.3,2.81,-9.13,0.47,1.48,-1.5,-9.23,0,1.28,1.19,0.43,0.06,-11.14,10.62,2.85,2
1.34,-0.4,0.81,-12.65,6.23,1.12,0.17,0.58,-0.3,9.82,12.21,-7.51,-0.01,0.13,0.06,-0.88,-4.03,-20.09,2
0.29,0.95,-0.09,3.47,-1.58,4.54,-0.28,1.03,0,0.54,-9.77,-2.14,-0.31,0.43,0.51,-15.53,2.32,12.62,2
-0.46,-0.1,0.51,-10.69,-8.42,-1.32,-0.13,-0.62,1.05,6.89,0.98,-9.46,0.59,-0.02,-1.14,-9.67,6.23,-11.79,2
-0.01,-0.85,-1.14,-1.42,2.32,8.94,1.07,0.13,0.3,6.4,4.39,-0.67,-0.01,0.43,0.51,0.58,6.72,-15.21,2
-0.16,0.95,1.41,-8.25,-5.49,-8.64,-0.28,-0.17,-0.3,-4.83,16.11,7.63,1.04,-0.02,0.36,-12.11,9.16,8.71,2
0.29,0.2,-0.09,6.4,-0.12,-6.2,-0.28,-0.92,-0.3,-3.85,-0.49,1.28,0.59,-0.47,-0.39,-5.28,2.81,10.18,2
2.22,-0.27,0.14,-5.77,-3.84,-2.59,-0.43,1.87,1.22,-4.77,-6.7,27.63,0.6,0.95,0.58,2.81,4.15,-11.57,2
0.87,-0.27,-1.06,10.34,-3.35,1.8,-0.43,0.07,-1.18,-4.28,-7.68,-10.45,1.2,0.05,-0.47,3.79,1.22,1.13,2
-1.38,0.33,-0.46,-4.8,9.83,4.73,-0.43,-0.38,0.47,-5.74,2.09,14.45,-1.05,0.05,-0.02,8.67,-8.06,-0.34,2
0.12,-0.27,-0.16,3.99,4.46,-12.84,0.47,-0.23,-1.33,-1.84,5.99,14.94,-0.3,0.35,0.28,-8.91,-0.74,9.43,2
-1.38,0.33,-0.01,-2.84,4.46,-19.19,0.32,0.07,-0.28,-12.09,-5.24,4.68,1.5,0.95,-0.92,28.69,-5.13,-25.24,2
-0.93,-0.87,-0.01,-14.56,16.67,51.61,0.47,0.52,0.17,9.88,-18.42,43.26,0.6,0.95,-0.17,46.76,-9.52,-58.44,2
-0.18,0.33,-0.01,-0.4,-0.91,-9.43,-0.28,-0.53,-1.33,5,5.02,-39.26,-0.75,0.05,-0.02,-32.35,3.66,71.44,2
-0.63,-0.12,-1.96,5.46,12.76,-45.56,0.92,-1.73,-0.88,-5.26,17.71,-49.52,-1.5,-1,-1.52,-5,-5.13,-9.13,2
0.27,0.78,-0.61,1.06,13.25,70.16,-1.03,-0.23,-0.88,-11.6,-9.14,80.85,0.45,-0.7,0.28,86.31,-28.08,-163.42,2
-0.93,-0.42,-0.46,1.06,30.83,-67.53,0.17,0.22,-0.58,-16,-4.75,93.06,0.9,-0.7,-0.02,65.31,-29.06,-102.39,2
-0.93,-0.87,-1.66,-30.19,-45.83,-88.04,-1.48,-1.73,-0.88,2.56,147.59,-857.62,0.3,-2.05,-0.62,211.79,-4.64,-356.3,2
-3.33,1.68,-3.01,-31.16,-6.28,-10.4,-1.63,-1.88,-1.93,-3.79,21.13,-60.26,0,-1.45,-0.77,50.66,-25.15,-205.42,2
-1.23,2.13,-3.76,28.89,12.76,78.46,-0.13,-2.63,-6.13,-25.76,-15.98,160.44,-0.3,-1,0.73,420.78,-3.67,-385.1,2
0.12,4.38,-4.51,43.54,-25.32,140.48,2.57,-2.78,-5.53,37.22,-30.63,36.91,0.3,-0.85,-0.17,-53.34,62.74,135.89,2
4.92,3.48,-3.61,-19.93,-9.21,190.28,3.32,-0.53,-4.78,39.67,30.9,-119.83,1.2,0.35,3.58,-106.08,52.49,-24.26,2
1.47,1.53,0.44,-246.98,45.97,989.05,3.77,0.52,0.62,36.74,-106.8,367.96,1.65,-0.7,2.98,-418.09,226.8,131.01,2
-0.18,0.33,3.14,11.81,22.04,77.49,-1.03,0.52,2.12,13.3,27.97,-147.17,0.9,1.1,-1.07,47.73,-38.82,-128.27,2
-1.23,0.18,4.49,30.85,26.43,108.25,-2.68,-0.53,4.07,-5.74,-37.46,161.91,0.9,2.15,1.03,63.36,-57.86,-161.47,2
-1.38,-0.87,3.89,8.88,-35.58,-181.79,-2.38,-0.53,2.87,46.5,83.14,-294.15,0.9,1.55,2.23,-46.99,-27.59,117.34,2
-0.93,-2.37,6.74,56.73,-60.97,-8.94,-2.08,-0.68,4.22,-40.9,68.98,-181.84,-0.75,2.6,1.48,118.04,-54.45,-234.23,2
-0.93,-3.87,8.99,-29.7,44.99,22.31,-5.98,0.52,5.27,-7.7,-11.1,222.94,-0.15,3.5,1.93,-116.33,42.72,330.23,2
-2.58,-6.72,8.24,-82.43,-20.93,-6.98,-6.58,1.87,6.47,-16.97,22.59,45.21,-0.9,3.5,2.38,-13.3,24.17,-0.83,2
-3.48,-6.27,5.54,-157.63,-10.19,542.82,-7.18,0.22,4.37,34.78,-2.31,-254.59,-0.75,2.9,2.53,207.4,-63.24,-554.05,2
-4.08,-3.42,3.74,-126.87,-627.86,-279.93,-6.13,-1.43,1.97,-377.81,331.19,-1005.57,-1.05,1.85,3.28,-395.14,52.98,14.31,2
-0.93,-1.62,2.39,-4.31,5.44,22.31,-2.68,-1.73,0.17,12.81,-4.26,-7.52,-0.3,1.55,1.78,2.81,-4.15,-11.08,2
-1.23,-0.57,0.14,-3.33,-10.19,-7.47,-1.03,-1.28,1.07,15.74,-0.35,2.24,0,0.05,0.73,-6.96,-2.69,7.47,2
-0.78,-0.27,0.59,1.55,-0.91,-3.57,0.47,0.52,0.17,-8.67,13.32,-6.06,-1.05,-0.4,-0.47,-11.84,-0.25,-2.29,2
-2.28,-0.87,-0.01,12.78,-5.79,-18.7,0.17,-0.23,-0.13,10.37,5.02,10.54,1.05,0.5,-0.17,-6.47,-0.74,19.68,2
-1.23,0.18,0.59,6.43,7.88,-28.47,-0.28,-0.98,0.62,2.07,-0.84,-13.87,0,0.05,0.28,-6.96,-10.5,14.8,2
-1.23,0.18,-0.16,7.41,-3.84,7.18,-0.73,-1.73,-0.13,-11.11,10.39,11.03,1.2,0.05,-0.02,-4.03,-8.06,-13.03,2
-0.33,0.18,-0.61,2.04,-2.86,-2.1,-0.13,0.07,0.77,-13.07,-0.84,-2.15,0.9,0.35,-0.47,13.55,4.64,-17.92,2
-0.93,-0.42,0.44,-4.31,-2.37,-12.36,-0.43,0.07,-0.73,-4.77,-8.17,3.71,0.45,0.35,-0.02,-8.42,0.24,7.47,2
-0.63,0.33,-1.21,-15.54,-10.19,24.75,-0.13,-0.68,0.47,0.6,-1.82,3.71,0,0.35,1.03,-3.05,5.12,-3.76,2
0.87,0.93,0.14,2.53,1.53,13.04,-0.43,0.07,0.02,20.14,5.5,-12.41,0.3,0.95,-0.17,7.2,-8.06,-24.26,2
0.12,-0.57,-0.16,0.09,-2.86,-11.87,-0.28,-0.23,-0.13,-9.65,-4.75,-8.99,-0.75,-0.7,-0.77,-20.63,10.01,22.12,2
-0.33,0.18,-0.61,-3.82,12.27,4.73,-0.88,-0.68,-0.73,-2.81,-13.05,22.26,0,-0.55,-0.17,10.13,-12.94,-12.06,2
0.72,-0.87,0.74,-3.33,3.97,6.2,0.77,1.12,0.47,12.32,1.11,-19.24,0.6,-0.55,-0.17,10.13,-5.62,-14.5,2
0.87,-0.57,-1.06,-3.82,5.44,-6.98,0.47,0.22,-0.13,1.09,5.02,-15.83,1.5,0.2,0.13,-4.51,-8.55,-5.22,2
-0.93,0.33,-1.21,-13.59,-10.19,-2.1,0.17,0.22,0.17,-14.53,11.85,-0.2,0.3,-0.1,-0.62,-9.4,2.19,19.68,2
0.12,-1.02,-1.36,13.27,-0.91,23.29,-1.03,0.22,0.17,6.95,-7.68,0.78,0.45,-0.4,0.73,10.13,-2.2,-4.73,2
-1.23,0.93,-0.16,-6.26,2.02,8.15,1.07,-1.13,-0.28,7.44,7.46,-9.97,-0.15,0.2,-0.17,2.81,-1.71,-11.08,2
0.12,-0.57,-0.16,-6.75,-5.3,4.25,1.37,0.22,0.62,5,1.6,25.68,0.6,-0.1,-0.17,-14.28,0.24,0.15,2
-1.23,0.18,-1.06,7.9,7.39,16.94,-0.73,0.52,1.07,-11.11,8.43,-20.71,-0.15,0.5,-1.37,4.27,-5.62,-14.99,2
-0.63,-1.17,-0.01,2.53,-3.84,-12.84,-0.28,-0.23,0.17,-2.33,-5.24,20.31,0,-0.4,1.03,-0.61,16.35,9.91,2
-0.33,0.48,1.04,0.57,0.07,-5.03,0.17,-0.53,-0.88,11.35,3.55,-26.08,1.2,0.05,0.73,1.83,-5.62,3.08,2
-1.23,-0.57,-0.61,5.95,-16.05,3.27,-0.28,-0.98,1.07,5,7.46,21.28,0,0.35,0.28,-11.84,-3.18,3.57,2
-0.18,0.33,0.44,-1.87,-5.79,-2.59,0.47,-0.23,0.17,3.05,-6.7,-14.36,-0.3,1.55,-0.02,0.37,10.49,-17.43,2
0.12,0.18,0.14,-5.28,11.79,-14.8,-0.13,-0.68,-0.28,-0.37,2.57,-3.62,-0.9,0.2,0.13,3.79,2.19,24.08,2
0.12,0.48,-0.16,0.57,-2.37,6.2,-0.43,-0.68,0.77,-3.3,3.55,3.71,-0.15,0.2,-0.62,13.06,-6.11,-22.31,2
0.72,0.78,-0.46,5.95,-1.89,-3.57,-0.73,0.22,0.17,-5.26,2.09,-3.13,-0.9,-0.55,0.13,-7.93,-3.18,18.7,2
-0.14,0.66,-0.38,70.74,-12.87,110.79,-0.65,0.15,-0.65,-38.96,57.24,-198.49,-0.13,-0.96,0.26,52.54,-41.2,-321.61,2
1.36,0.81,-0.53,65.36,-0.66,-492.72,0.4,0.75,0.4,-109.76,-6.24,112.55,-0.58,-0.51,0.11,-371.29,206.85,797.04,2
3.61,1.41,0.82,-28.39,-28.49,-84.52,1.6,2.55,-0.35,-74.12,127.06,209.72,0.32,0.39,1.46,-137.4,228.82,913.74,2
4.06,0.96,-0.38,-11.78,3.25,13.13,2.65,2.1,1.3,4.49,19.64,17.82,1.07,1.14,3.26,-7.03,-2.62,-9.6,2
4.96,1.41,0.82,6.77,12.04,-82.08,3.25,3.3,1.9,-18.46,46.01,15.87,0.32,2.19,3.26,-36.33,-6.53,48.02,2
3.61,0.21,0.52,21.91,18.87,-5.42,2.8,3,1.45,14.26,21.11,62.74,0.92,1.29,4.61,17.38,10.07,21.65,2
0.46,-0.39,0.22,4.33,29.13,67.82,-0.65,3.15,1,22.56,32.82,-16.85,-0.28,2.49,4.91,58.4,-2.13,-33.03,2
0.91,-2.34,2.62,345.64,-54.86,-1057.67,-0.95,2.85,1.75,-181.05,178.33,-92.04,-0.28,1.29,1.91,-399.61,303.53,989.43,2
1.21,-1.74,2.47,1.89,-3.59,-17.63,-0.05,0.75,3.85,-3.81,9.39,-22.22,0.32,2.64,2.21,26.66,-16.78,53.39,2
2.26,-1.89,3.82,0.91,22.78,118.11,1.15,0.75,4.15,-3.32,2.55,13.43,1.52,2.94,1.76,91.11,-30.94,-159.5,2
1.96,-0.54,0.82,-11.78,-15.31,-57.18,1.15,0.75,3.1,-2.83,29.89,-135.01,1.97,1.59,1.46,14.94,4.7,50.46,2
2.41,-0.54,0.52,62.92,34.01,357.37,1.6,1.05,0.7,-56.54,80.19,-394.78,1.07,1.59,-0.79,289.84,-94.42,-536.45,2
3.61,-0.24,-3.08,-10.81,0.32,46.34,3.25,0.75,0.4,-96.09,-58,421.63,1.97,0.39,-0.04,-147.17,101.38,466.97,2
4.66,0.06,-5.18,-26.92,15.45,52.2,3.25,0.75,-1.55,-58.01,80.68,72.51,2.12,-1.26,1.16,12.5,25.21,79.76,2
4.06,1.41,-6.98,-23.01,43.77,112.26,3.85,0.15,0.1,-40.92,57.73,16.36,0.17,0.99,-0.19,34.47,-2.62,-82.84,2
0.76,0.96,-5.78,-40.59,13.99,249.95,1.6,-0.75,-2.3,0.59,-21.86,159.91,0.47,-0.06,1.91,43.26,15.93,46.56,2
-1.79,1.41,-5.78,-101.63,103.83,117.63,1.45,-0.6,-2.15,-26.27,-77.04,173.09,-0.13,-0.36,0.26,68.65,37.91,88.55,2
-0.59,-0.24,-3.53,239.68,355.3,988.66,1.45,-0.3,-1.4,341.9,-650.77,1019.22,1.37,-1.26,1.16,-230.18,-172.06,77.81,2
-1.19,0.06,-0.08,13.61,-2.12,-2.49,-0.05,0,-1.25,-13.57,-0.38,-0.25,0.32,-1.41,-0.49,2.74,-15.81,-37.43,2
-0.59,0.21,-0.38,14.1,-5.05,1.9,0.4,-0.75,0.4,0.1,10.85,-5.62,-0.58,-1.26,0.11,12.5,-5.55,-25.22,2
0.91,0.36,0.22,-5.92,-6.52,-19.09,0.25,-0.3,0.55,-7.22,-6.73,2.68,0.32,-1.71,-1.54,-10.94,5.19,16.28,2
-0.59,0.66,0.07,-1.04,-9.45,-1.03,-0.35,0.75,-0.05,-7.22,-3.31,10.5,-1.18,0.84,-0.04,1.27,-5.06,-8.13,2
-0.74,-0.39,-1.28,6.77,0.32,-25.93,-0.2,-0.3,0.1,8.4,9.87,10.01,-0.43,0.09,0.26,1.27,-5.06,-1.78,2
1.21,0.66,0.07,9.21,1.29,18.99,0.25,-0.6,-0.2,11.33,-6.73,-29.54,0.47,-0.51,1.16,13.48,-9.95,-18.39,2
0.46,-0.69,-0.98,10.19,-2.12,-12.74,2.2,1.65,-0.65,-2.34,-0.38,-3.18,-0.28,-0.81,-0.64,-8.5,2.26,23.12,2
0.31,0.21,-1.13,4.33,-3.59,-3.96,-0.65,0.45,-0.95,-21.39,-2.82,-7.57,0.32,-0.36,0.71,5.66,-14.83,-29.13,2
1.36,0.06,-0.08,3.35,-7.01,-19.09,-0.8,1.05,-0.05,-9.18,-10.63,-2.2,0.17,-0.81,-0.94,-20.21,12.03,33.37,2
-0.14,-0.24,-0.68,2.38,2.76,-4.44,-0.65,-1.05,0.1,5.96,2.06,-22.22,0.32,-0.96,-0.04,2.25,-7.99,-16.92,2
0.16,1.26,0.67,0.42,-7.01,17.04,0.25,0.9,-0.65,-12.6,-6.24,16.84,-0.28,0.99,0.56,12.01,-13.85,-7.16,2
1.36,-0.69,0.22,-2.02,-3.59,-8.84,0.55,-0.3,-0.2,-2.83,3.53,-12.45,0.92,0.24,0.56,-22.17,-3.6,21.65,2
0.16,0.36,0.67,1.4,3.74,-1.03,0.25,0.15,-0.2,-0.88,-2.82,10.5,-1.03,1.29,0.56,-9.96,5.19,-2.76,2
0.76,-0.24,0.52,-0.07,8.13,-0.05,0.85,-0.45,-0.05,4.01,-6.24,-9.52,0.32,-1.41,0.26,-13.38,3.73,-17.9,2
0.91,0.81,0.22,2.38,12.52,5.81,1,0.45,0.1,2.05,-6.24,31.98,0.77,-0.66,0.26,5.66,-4.58,-3.25,2
-0.29,-1.14,0.22,4.33,5.2,-8.84,0.4,-1.2,-0.35,-12.11,9.39,-22.22,0.47,0.24,0.11,-0.19,-4.58,20.19,2
0.46,-1.14,-0.53,-5.92,8.13,16.55,-0.2,0.45,-0.95,1.56,-3.8,7.57,0.17,-0.06,-1.69,11.04,-2.62,-40.36,2
0.16,0.81,1.42,-3.48,1.78,-14.21,0.55,0.15,0.1,2.05,-0.38,7.57,0.92,0.99,0.86,-14.84,2.75,47.53,2
0.46,-0.69,0.67,4.82,-4.08,11.67,0.25,0.15,0.1,0.59,5.48,-26.61,-0.43,-0.36,-0.49,22.75,-6.04,-32.06,2
0.46,-1.14,-0.98,-4.46,9.11,-10.3,-0.8,0,0.7,5.96,-23.33,25.63,0.47,1.29,-0.94,-12.89,-1.65,5.54,2
-0.29,-1.14,-0.08,-26.43,-6.03,2.88,-1.4,-0.6,1,-11.62,-5.75,3.66,0.17,-0.06,0.56,-9.47,4.21,1.15,2
-0.14,0.21,-1.58,1.89,3.74,-0.05,-0.2,0.45,-0.95,2.54,2.55,4.64,-0.28,0.24,0.11,4.2,3.24,-1.3,2
1.51,-0.24,1.27,-2.99,-1.64,-0.54,0.4,-0.75,-0.05,-0.88,-3.8,17.82,0.17,-0.81,0.11,-4.59,0.8,6.52,2
-0.14,-0.54,-0.38,8.24,13.5,6.3,-0.35,-0.45,-0.8,-6.25,-8.68,-1.71,0.47,0.54,-0.19,-8.98,-4.09,1.63,2
0.31,1.41,-0.68,-6.41,-6.52,5.32,-0.35,0.3,-0.8,-0.88,1.57,8.54,-0.28,0.99,0.11,4.2,2.26,6.03,2
0.76,-0.54,0.07,-1.04,1.78,2.88,1.45,-0.3,-0.65,-13.57,2.06,1.71,-0.43,1.14,0.71,-8.5,7.14,-9.11,2
0.31,0.21,0.07,6.77,5.2,-4.93,0.55,0.45,0.1,4.49,-3.8,-5.62,0.77,-0.66,-0.49,-2.64,2.75,0.66,2
-1.49,0.06,-0.98,13.61,-1.15,-7.86,1,0.45,-0.95,-4.78,-3.8,-4.15,0.32,-0.36,-0.04,-9.47,4.7,5.54,2
-0.14,-0.24,0.52,-0.55,0.81,9.72,-0.05,0.75,0.7,-4.78,1.57,-0.25,-1.63,0.39,1.46,-1.66,1.28,0.17,2
0.16,0.81,-0.53,-10.81,6.18,3.37,0.25,0.9,-0.2,-4.3,-2.82,0.24,-0.28,-0.06,-0.64,9.57,2.26,1.63,2
-0.74,1.26,-0.08,11.65,1.29,-2,1.15,0.3,-1.25,8.4,-11.61,-2.2,0.92,0.24,-1.39,13.48,0.8,-6.18,2
-0.74,-0.39,-1.28,-12.27,-7.01,-13.23,0.25,-0.3,-0.95,7.42,3.04,16.36,0.77,-0.36,-0.49,-4.1,-0.67,1.15,2
-0.52,-0.39,0.59,2.18,5.96,-4.85,-0.43,-0.5,-0.27,-1.35,-2.65,-3.31,0.75,-0.66,0.16,8.66,1.84,-12.91,2
0.83,-0.39,0.59,1.69,5.96,-7.78,0.17,-1.1,0.63,-8.68,7.12,-15.03,0.9,-0.06,0.46,5.24,11.61,8.58,2
-0.07,-1.14,-0.61,-4.65,1.07,8.34,0.17,0.4,0.63,-4.28,4.68,18.66,-0.45,0.09,-0.14,13.54,7.7,-21.7,2
0.98,0.96,-0.91,3.16,-4.3,0.53,-0.28,-0.65,1.38,0.11,-11.44,29.89,-0.3,-0.06,-0.29,-18.69,12.58,14.92,2
0.83,-0.39,0.59,-0.26,2.54,-42.44,0.17,0.1,-0.12,4.51,7.12,-42.86,-0.15,0.39,-0.59,-20.64,3.8,50.57,2
-0.07,-0.84,-0.61,-7.58,1.56,32.26,0.17,0.1,-0.12,-0.87,3.7,-9.17,0.3,-0.36,-0.59,29.17,-13.29,-87.13,2
-0.22,0.21,-0.46,12.92,-0.39,6.87,0.32,-0.05,-0.27,-7.7,-0.21,49.42,0.15,-0.51,-0.29,-14.29,6.73,15.9,2
-0.67,-0.54,0.29,0.72,0.1,-2.4,0.92,-0.35,0.18,22.08,12.98,-45.79,-0.6,-0.81,0.01,-13.31,5.26,8.09,2
-1.42,0.21,-0.46,9.51,-9.18,-14.61,-0.43,0.25,0.78,1.58,5.65,-1.85,-0.15,-0.36,0.16,8.66,-9.39,5.65,2
0.83,-0.39,0.59,-2.7,-6.25,-15.59,-1.33,-0.05,-0.27,-1.84,-9.48,74.33,-0.15,-0.36,0.16,14.52,10.63,18.34,2
0.38,-2.04,0.59,-2.7,-14.55,-67.83,-0.28,-0.65,0.18,1.58,4.19,-15.52,-0.3,-0.06,0.76,25.26,-21.11,-27.56,2
-0.22,-0.24,-0.01,-111.59,20.12,592.81,-0.28,1.6,0.18,1.09,17.86,24.52,-0.45,-0.66,0.16,97.53,1.84,-108.12,2
-0.82,-0.09,-0.31,44.66,62.11,42.03,-1.03,0.85,0.18,-79.48,-219.93,1018.6,-0.45,0.09,-0.14,-187.14,98.52,375.76,2
0.53,0.51,2.24,-19.79,86.52,78.65,0.17,0.1,2.13,34.78,-50.01,-6.24,0.15,1.74,1.06,82.88,34.07,121.86,2
1.43,-0.24,3.14,0.23,21.09,-157.19,-1.63,0.25,1.98,1.58,35.44,131.45,0.75,1.59,2.86,-14.29,-1.58,49.1,2
0.53,-1.74,1.94,-18.82,26.46,22.99,-3.58,-0.65,2.13,-46.28,39.34,-49.21,-0.3,0.99,3.31,-28.45,-31.85,-120.33,2
0.38,-1.14,1.64,113.02,18.16,185.1,-1.63,-0.05,3.18,-26.74,49.11,-55.56,0.45,1.29,3.76,75.55,-61.63,-94.94,2
0.53,-2.94,2.24,343,-430.08,163.61,-1.48,-0.35,3.33,4.02,-109.09,1018.6,-0.15,1.59,2.86,-1030.4,183.97,1072.48,2
1.58,-1.59,4.04,-14.91,13.28,157.75,0.77,-0.5,3.93,5.97,5.16,1.08,2.1,2.04,2.26,86.78,-30.38,-188.69,2
2.63,-0.54,3.14,11.46,9.37,43.49,3.17,1,3.93,-13.07,-23.16,276.96,2.25,1.89,1.66,-77.28,41.88,163.85,2
2.33,-0.54,-0.01,101.79,36.23,133.34,3.02,1.6,0.18,4.51,66.69,-219.13,3.9,1.89,0.91,-129.04,55.55,226.35,2
1.58,0.36,-1.51,359.11,68.94,-30.24,1.82,3.85,-0.57,-138.07,43.74,247.18,3.3,0.54,0.46,111.69,-113.39,-192.6,2
1.58,2.76,-0.31,42.71,-36.04,-246.06,2.12,2.05,-5.52,-10.63,39.34,51.38,2.1,-2.01,3.31,-90.46,16,62.29,2
0.23,2.91,-0.46,93.49,67.97,-31.21,2.42,-1.55,-6.42,75.31,-55.38,-94.13,2.7,-0.96,3.16,-128.55,13.07,111.6,2
-1.42,1.56,-1.51,-292.74,148.53,478.06,0.32,-0.5,-4.47,31.85,-182.82,309.68,-0.15,0.39,1.36,343.62,-91.42,-220.92,2
-1.42,0.51,-0.46,-76.43,-392.48,-1523.4,0.77,-0.8,-3.42,-333.39,-300.01,1018.6,-0.45,-1.41,0.61,873.4,-691.52,-1848.85,2
-0.07,-0.09,0.89,4.13,-9.67,-11.68,-0.28,0.4,-0.12,-5.26,-14.37,3.04,0.45,-0.81,-0.29,34.05,0.87,-20.23,2
1.43,0.51,-0.46,10.48,0.58,22.5,-0.88,-0.8,-1.92,-8.19,2.72,5.97,1.35,-0.06,-0.29,11.1,-0.11,-38.3,2
0.23,-0.24,-0.91,-0.75,-9.67,-0.45,-1.03,0.85,-0.57,-4.28,-1.67,4.5,0.15,0.54,0.76,15.49,-0.6,-8.51,2
0.38,-0.84,0.14,14.39,5.47,8.34,-0.28,0.1,-0.57,-10.63,3.7,-2.33,-0.6,0.54,0.46,15.98,-3.53,-2.65,2
-0.82,-0.39,-0.61,-0.26,-1.86,9.8,-0.88,-0.05,-0.27,-10.14,8.58,32.33,0.3,-0.96,0.91,20.38,-12.81,-38.3,2
-0.52,-0.84,0.59,-7.1,-0.39,5.9,-0.13,-0.05,-0.27,9.39,14.44,-16.49,-0.15,-0.66,-0.14,-17.22,13.07,-4.12,2
0.38,-0.39,-0.61,-0.75,-2.35,6.39,0.17,0.4,0.18,5.48,-7.04,0.11,0.15,0.99,0.76,-4.04,-4.02,10.53,2
0.38,0.81,0.14,-11.98,-3.32,16.64,0.92,0.4,-0.12,-7.21,-3.14,-4.29,-0.6,-0.51,-0.29,4.75,1.84,-5.1,2
1.43,-1.74,0.74,3.16,1.56,-4.85,-0.28,0.1,0.18,5.48,0.77,1.57,0.3,-0.36,-0.89,-13.8,16.49,14.43,2
0.38,0.81,-0.31,-2.7,5.96,1.99,-0.73,1.3,-0.12,-9.65,1.26,-16.01,0.75,-0.36,-0.59,-11.36,4.28,9.55,2
0.23,-0.24,-0.01,10.48,2.54,0.53,0.47,0.1,0.63,-6.24,11.02,7.92,-0.6,-1.26,0.46,-4.53,-2.06,-2.17,2
-0.52,-0.84,0.14,-6.12,4.98,-4.85,-0.13,-0.5,-1.47,3.53,8.09,-17.47,1.05,1.14,-0.59,-17.71,2.82,-6.07,2
-0.52,-0.09,0.14,2.67,-3.32,-7.29,-0.88,-0.8,-0.72,3.04,-5.58,6.45,0.45,-0.06,-1.04,-4.04,-7.43,11.02,2
-0.52,-0.39,-1.51,-3.68,4,-2.4,0.32,-0.5,0.48,-4.77,2.23,20.13,-1.05,-0.51,0.46,14.52,-0.6,-0.21,2
-0.82,-0.39,-0.61,-12.96,5.47,11.27,0.32,1,0.03,-10.14,-1.18,2.55,-0.15,-1.41,0.61,8.66,-10.36,-4.61,2
0.53,-0.99,-0.91,12.92,-2.35,-4.85,-0.43,0.25,0.48,-4.77,-2.16,4.99,0.9,-0.06,0.46,-2.08,7.21,9.55,2
-0.07,-0.84,1.34,5.11,0.1,14.2,0.77,-0.8,0.48,4.99,-1.67,-21.87,-0.3,-0.06,0.01,-0.62,-9.88,-3.14,2
0.23,-0.24,-0.46,-4.65,5.96,-8.26,-1.63,-0.05,1.23,-11.61,0.77,0.6,-0.3,0.24,0.01,0.36,14.54,-2.17,2
-0.07,-0.09,0.89,7.55,-9.67,-10.22,-1.33,-1.25,0.48,5.48,-12.41,-0.38,0.9,-0.06,-0.74,-2.08,-0.11,0.76,2
0.53,0.21,-0.01,16.83,-0.88,-15.1,-0.88,0.25,-0.27,-9.17,1.26,-1.36,-0.3,-0.51,0.46,-12.34,0.87,14.92,2
-1.72,-0.09,0.89,-0.26,0.58,-5.82,-0.73,0.85,1.38,-0.87,-1.67,11.83,0.45,-0.51,0.46,9.15,2.33,0.27,2
-0.52,-0.39,-0.61,-7.58,-0.39,7.36,0.17,0.85,-0.12,6.95,5.16,0.11,-0.9,0.09,-0.14,1.82,6.24,-3.14,2
-0.67,0.21,0.29,4.13,0.58,5.9,-0.73,0.85,-0.87,11.83,8.09,-7.71,-0.3,-0.06,-0.74,4.75,2.82,-29.02,2
-0.67,-0.24,-0.01,0.23,-0.39,-18.03,1.37,0.1,-0.12,-8.19,-7.04,5.48,0.9,-0.51,1.06,-1.11,11.12,5.16,2
-0.22,-1.04,-0.39,2.59,-2.31,-17.15,2.81,-0.01,-0.05,-9.37,4.17,9.31,-0.6,0.32,0.09,-6.66,-0.63,11.25,2
0.08,0.61,-0.99,0.63,-1.34,15.08,-1.39,-1.06,-0.65,11.63,-5.1,11.75,0.45,0.62,0.09,22.15,8.16,-11.7,2
0.08,0.31,0.66,-0.34,-6.22,0.43,0.56,-0.61,-0.95,-4,6.13,-1.92,-1.05,0.02,0.09,5.06,-12.35,-7.79,2
1.13,0.46,0.51,1.61,-4.27,7.75,0.86,-0.76,0.7,-4,-9.5,-1.92,0.15,0.02,-0.21,3.6,4.74,-0.47,2
0.08,-1.34,-0.09,-9.13,5.5,33.63,0.56,1.64,-0.95,0.4,-8.03,-0.94,0.45,-0.43,-0.21,9.94,-5.02,-26.84,2
-0.82,0.31,-0.54,1.12,1.1,-15.2,-0.19,0.89,1,-2.05,-0.22,-26.82,-0.15,-0.28,-0.06,-5.19,5.23,36.64,2
-0.67,-0.74,0.06,-3.76,12.82,58.54,-0.04,-0.01,-0.8,-6.44,8.57,-19.99,-0.15,0.47,0.69,35.82,-15.28,-78.11,2
-0.22,-0.74,-0.39,-11.57,4.03,15.57,-0.94,1.34,1,-1.56,-22.68,50.33,-0.45,0.92,0.69,-42.3,14.51,69.35,2
0.08,0.31,-0.09,12.84,2.57,-100.16,0.86,-0.46,1.15,-4.49,0.27,-31.71,0.15,1.07,-0.96,-40.84,3.77,63.98,2
0.68,0.46,0.06,-4.25,2.57,95.64,0.26,0.89,-0.2,20.9,4.17,43.49,1.35,0.32,-0.96,44.61,-3.07,-86.41,2
1.43,0.01,-0.69,-25.25,-16.47,-187.56,1.01,0.44,1,-13.28,-32.93,130.89,-0.9,0.92,-0.81,-125.8,45.27,159.69,2
1.73,0.61,-1.74,17.72,-76.53,-247.62,-0.19,0.89,-0.65,37.02,151.15,-672.33,0.9,0.02,0.84,-78.92,103.86,387.23,2
1.73,0.31,-8.04,-20.36,5.01,32.66,1.46,0.44,-1.4,-27.44,32.98,58.14,-0.45,-0.88,-0.06,81.72,-76.31,-494.12,2
1.88,-0.74,-13.74,15.28,14.78,52.19,3.11,0.44,-0.2,-33.3,31.52,1.5,1.5,0.17,1.44,-18.86,6.21,14.67,2
10.28,-1.04,-22.44,28.47,11.85,-37.66,2.06,-0.46,0.7,16.51,3.69,-41.96,0.3,1.67,1.74,-41.33,29.65,50.8,2
11.33,1.51,-14.34,-89.21,47.49,-169.49,4.61,0.14,0.55,-39.64,80.83,15.17,2.1,1.82,2.64,167.17,134.14,-231.91,2
11.03,1.21,-7.44,55.81,137.33,-64.51,4.01,-0.46,3.1,-13.28,-204.81,317.9,1.5,1.67,3.54,-204.9,35.02,-74.2,2
2.48,1.81,-2.04,-3.76,5.5,51.21,0.56,-1.06,1.75,-32.81,390.89,-982.39,-0.15,1.22,1.44,-777.17,-143.21,855,2
0.08,1.06,2.16,7.96,-7.2,-101.62,-0.79,-0.01,0.4,-10.83,7.59,-36.1,0.45,0.62,1.59,-42.3,8.16,80.1,2
-1.87,-0.74,2.76,1.61,5.5,-11.78,-1.24,-0.01,-0.05,6.74,20.29,-107.39,-0.9,1.22,0.69,61.7,-32.37,-140.61,2
-1.42,-1.94,0.81,22.61,-16.96,211.86,-1.39,-1.36,0.55,-64.06,13.45,308.63,0.15,1.82,1.14,59.75,-4.53,1.48,2
-1.57,-0.14,-0.54,-73.59,-18.92,-462.95,-0.34,-1.51,-0.8,54.59,-42.7,261.75,-1.65,0.47,0.24,-436.83,256.7,1072.71,2
-0.67,0.91,0.06,48,16.24,7.27,-2.44,-0.01,-2,-1.07,3.69,212.92,0.15,1.07,0.84,-168.28,81.89,168.96,2
1.43,0.01,-0.39,-2.3,39.19,-56.7,-0.34,-0.01,-2,15.04,7.1,43.98,-0.15,-1.33,1.44,-37.91,-53.85,66.91,2
1.28,0.61,-2.04,-105.81,49.44,-43.03,1.16,-0.01,-0.35,-12.3,43.73,10.29,1.35,0.32,1.59,-104.31,67.24,111.84,2
1.13,0.46,-1.14,-176.61,120.24,-859.92,3.11,-0.31,0.1,196.68,-66.14,-193.33,-0.9,0.47,0.69,-101.38,106.79,329.12,2
0.08,0.31,-1.29,4.54,-9.15,4.82,1.91,-0.61,-0.2,3.81,6.13,-5.34,0.75,-1.63,-1.11,2413.69,-1247.7,-2927.23,2
1.28,-0.44,-0.54,3.07,9.4,-2.5,1.16,-0.01,-0.05,4.79,-10.47,1.5,-0.9,0.17,-0.51,3.11,-6.49,-28.79,2
-0.67,-0.74,-0.39,3.56,1.59,12.15,0.86,-0.01,-0.35,-9.37,1.73,-8.76,-0.45,0.47,0.69,1.64,-5.02,5.88,2
-0.22,0.91,0.51,12.35,5.99,1.89,0.26,-0.61,-0.95,3.33,-7.06,-6.8,-0.45,-0.58,0.24,24.59,-4.05,-37.58,2
-0.82,-0.89,0.21,4.54,-15.01,-25.94,-0.64,-0.61,-0.65,-5.46,2.22,2.96,-0.45,0.17,0.24,-20.33,14.02,57.64,2
-1.27,0.61,0.21,1.12,-4.27,24.84,0.86,0.29,0.4,4.79,-1.68,-1.43,-0.45,-0.88,0.24,8.48,-10.39,-32.7,2
-0.97,0.01,-0.39,8.45,0.62,4.34,0.26,-0.61,-1.7,11.63,-6.57,2.47,-0.45,-0.28,1.44,-5.68,-0.63,14.18,2
0.83,-0.14,-0.09,0.63,-11.59,10.68,2.06,0.29,-0.35,4.3,-1.2,9.8,-1.05,0.02,-0.21,8.97,-6.98,-36.6,2
0.23,0.46,0.51,-11.09,2.08,-29.36,-0.04,0.29,1.45,-14.74,-2.17,-24.38,-0.3,-0.43,0.84,-35.95,8.65,22.97,2
0.23,-0.74,0.06,0.14,-0.36,19.47,-0.79,-0.76,-0.35,8.7,-1.2,17.12,-0.6,-0.73,-0.21,3.6,-6.49,-10.23,2
0.68,-0.29,0.81,-0.34,0.62,5.8,0.86,-0.76,0.7,-3.51,-10.96,15.66,0.3,-0.28,0.69,0.67,-1.6,-28.3,2
0.23,-0.29,-0.39,9.91,-6.71,-23.01,-0.04,-0.01,0.4,-5.46,2.22,-22.43,-0.6,0.02,-0.21,-10.08,11.58,22.97,2
0.38,0.31,-0.09,6,-16.47,12.15,-0.34,-0.46,0.4,9.18,-3.64,22.98,0.3,0.17,0.69,13.85,4.74,-19.51,2
-0.22,-1.04,1.26,1.12,-8.66,2.38,-0.79,-0.46,-0.8,6.25,8.57,-2.41,0.75,0.92,-0.06,6.53,-20.16,-2.91,2
1.28,0.31,0.21,-3.76,-10.13,-7.38,0.26,0.14,0.1,0.4,-2.17,-9.24,0.15,0.62,-0.96,-11.54,1.81,13.2,2
0.23,-0.74,-1.14,-4.25,0.13,8.73,-0.79,1.04,0.4,4.3,5.64,14.68,-0.6,1.07,-0.66,6.53,1.81,-6.82,2
-0.67,-0.74,1.56,6.49,0.62,1.41,1.16,-0.76,0.4,-0.09,3.69,-10.71,0.15,0.02,0.09,1.15,5.23,0.51,2
0.08,-0.44,-0.09,4.05,-11.59,1.41,-0.79,0.29,-0.35,3.33,-2.66,0.03,0.15,-0.43,0.09,12.87,-17.23,-8.28,2
0.38,0.31,0.66,-1.32,-5.24,-3.48,1.61,-0.76,0.4,-2.53,1.25,-15.1,-0.15,-0.28,-0.81,-9.1,4.25,20.53,2
1.13,-0.29,-1.59,2.59,-5.24,23.87,1.01,0.44,-0.95,3.81,-3.15,-6.32,0.15,0.32,-0.21,9.46,-17.23,-30.25,2
-0.67,-0.29,0.06,8.45,3.54,4.34,0.56,-0.61,-0.65,2.35,-7.54,-0.94,-1.05,-0.43,1.14,-15.94,10.6,26.39,2
0.08,-0.44,-0.99,4.05,5.99,9.22,-0.64,-0.61,-0.2,-3.02,1.25,-12.17,-0.6,1.07,0.84,3.11,-6.49,-14.14,2
0.83,-0.89,-0.54,-9.13,4.52,-4.94,0.86,-0.46,0.4,-8.39,-1.2,-2.9,0.3,-0.28,-0.51,-6.17,5.23,11.74,2
0.08,0.61,-1.29,0.63,-9.15,12.15,-0.34,0.29,0.4,-3.02,1.73,-4.85,-0.6,0.32,-0.21,0.67,-2.09,-8.77,2
1.57,-1,-1.17,7.66,-0.22,-31.16,0.18,-0.59,-0.15,3.88,-9.69,-21.4,-0.92,-0.9,0.83,-22.22,-1.86,21.28,2
-0.83,0.5,0.03,2.29,8.57,35.24,1.08,-0.44,0,0.95,-2.85,24.01,-0.32,-0.45,0.38,26.61,10.34,-36.82,2
-1.43,1.55,-0.12,12.05,-6.08,-42.88,0.33,0.01,-0.75,-6.37,6.91,6.92,0.13,0,-0.07,-40.77,25.48,98.92,2
-0.08,-0.25,0.03,-9.92,1.25,-35.56,-1.32,1.06,-0.3,-8.81,4.47,-48.74,-1.07,1.05,-0.82,19.77,-13.09,-25.59,2
0.22,0.35,0.18,-0.64,17.85,131.92,-0.87,0.31,0,0.95,-9.2,36.71,-0.32,0.3,-0.37,59.81,-14.56,-106.65,2
0.22,0.35,-1.32,1.8,-23.17,-95.62,-0.72,0.91,0.6,0.95,-4.32,-6.75,0.88,0.6,-0.37,-79.84,18.16,173.62,2
-0.53,-0.7,-1.62,-6.5,9.06,93.84,-0.27,-0.59,-1.35,46.85,37.19,-273.35,-0.17,0.15,-0.97,-39.31,15.71,67.67,2
-0.23,1.1,-1.32,93.11,62.28,564.05,-1.02,-1.04,-0.9,-39.58,-30.69,687.59,-1.52,-0.75,0.98,428.46,-217.2,-906.45,2
-0.83,0.5,-0.72,42.81,53.98,17.18,-2.37,-2.09,-2.1,-45.43,-4.81,47.45,-0.92,-0.6,1.58,59.81,-29.7,-125.69,2
-0.53,1.7,-0.42,-8.94,39.33,9.36,-5.52,-3.29,-6.6,33.67,-11.64,-27.75,0.73,-0.3,1.28,81.78,3.02,-55.38,2
0.82,1.25,-0.72,-30.92,60.82,110.93,-2.97,-3.44,-7.65,-15.65,-19.94,120.69,0.28,-0.3,0.83,130.12,-50.2,-211.14,2
2.47,1.25,0.03,70.16,8.08,253.51,0.48,-0.29,-3.3,-52.76,45.49,-6.26,1.48,-0.3,2.78,-46.63,49.89,125.77,2
2.47,0.05,1.23,-354.65,-97.39,988.8,1.83,0.91,0.6,-170.92,374.59,-695.23,1.48,1.65,1.28,127.19,-73.15,-633.02,2
1.42,-1.3,2.58,-9.43,5.64,-7.73,0.18,0.46,3.6,-11.25,-36.54,187.59,1.03,2.7,-0.22,-18.31,7.41,39.84,2
-0.68,-2.8,2.58,18.4,-28.05,-131.26,-1.62,-1.49,3.45,17.07,26.93,-273.35,-0.62,1.8,0.68,-109.13,33.78,191.69,2
-0.83,-0.7,1.98,-38.24,20.29,165.13,-1.02,-1.79,3.6,-1.49,-22.87,131.92,0.73,1.65,1.28,74.46,4.48,-122.27,2
-0.68,1.1,0.18,70.65,27.61,-162.51,-0.72,-0.59,2.55,33.18,-93.19,323.82,-0.17,1.2,1.58,-308.35,92.86,493.94,2
0.22,0.35,1.38,-41.66,178.49,-41.42,-0.72,-1.04,1.05,-52.76,61.11,-95.13,-0.62,1.35,0.98,137.45,-31.16,-221.4,2
2.62,3.05,6.48,-80.23,-44.65,-55.58,0.33,-0.44,1.5,-32.74,16.68,36.71,0.13,0.6,0.68,39.3,-12.12,-31.94,2
0.97,3.05,4.23,-104.16,-127.66,-192.3,0.33,0.76,-0.3,46.36,-255.29,46.47,0.13,0.6,0.68,-79.35,-49.72,-121.79,2
1.57,0.95,3.18,-118.32,368.43,-470.13,0.33,0.31,1.2,178.2,338.94,-440.34,-0.17,-0.9,0.83,-106.69,131.93,374.31,2
-0.68,-0.4,-0.57,2.29,-7.54,-17.49,0.78,0.76,0,3.39,-10.67,-13.59,0.28,-0.9,0.53,306.39,-240.63,-2927.45,2
1.57,0.05,0.78,-15.29,-10.47,-2.35,0.18,0.91,0.15,-3.93,5.45,10.83,0.13,-0.75,-0.07,-9.52,13.76,10.54,2
-0.23,-0.85,-1.02,-6.99,-3.15,10.83,-0.12,0.31,0.45,11.69,-5.29,-9.68,-0.17,-0.9,0.53,0.73,4.97,9.07,2
0.82,0.5,1.53,0.33,-11.94,-2.84,1.53,0.31,0.45,-5.4,-10.18,16.2,0.88,0,-0.37,-19.29,10.34,35.93,2
0.97,-0.4,0.18,0.33,-3.64,23.04,-1.32,-0.44,-0.3,6.32,-6.27,1.55,1.63,-0.45,0.38,22.21,2.04,-19.25,2
-0.68,-0.4,0.18,-2.6,-0.71,0.58,0.78,0.01,0,6.81,-5.29,-3.33,-0.32,0.6,-0.07,-3.18,4.48,-18.27,2
-0.53,-0.25,0.03,11.56,-4.12,-22.37,-0.27,-0.59,-0.15,8.28,-7.74,9.85,-0.92,0.9,-0.22,-16.85,1.07,48.14,2
-0.23,0.65,1.08,-1.62,16.87,8.39,0.33,0.31,-0.75,4.86,3.01,-3.33,0.28,-0.3,0.83,13.43,-16.51,-35.85,2
0.22,-1.6,0.63,5.22,1.74,-15.05,-0.12,0.01,0.75,5.35,8.38,-14.07,-0.62,0.3,-0.07,-0.73,4.48,22.75,2
-0.23,1.1,1.38,10.59,6.13,3.99,0.93,0.16,-0.6,9.74,-1.88,14.25,-0.62,-0.45,-0.07,14.89,1.55,-16.32,2
-0.08,-0.4,-0.57,8.63,11.01,6.43,-0.42,0.01,-0.3,0.95,-0.41,-20.91,-0.92,0.15,0.08,4.64,-3.82,-3.62,2
1.42,0.35,0.63,-0.15,-7.05,-10.17,0.33,-1.19,0,-1,-7.74,3.5,-0.47,-0.6,-0.22,-21.24,5.95,47.16,2
0.52,-0.4,0.18,-0.64,-2.17,17.67,-0.27,0.16,1.8,15.6,3.98,4.97,-0.92,0.45,0.08,14.4,-12.12,-24.62,2
1.42,-0.1,0.18,12.54,10.52,-20.91,-0.72,0.91,-0.6,12.18,0.56,-21.4,0.13,1.35,-0.07,-5.62,8.39,33,2
-1.13,1.55,1.08,1.31,5.15,1.55,-0.72,1.36,1.05,-9.79,0.56,26.45,0.28,0.9,-0.97,5.61,-1.38,-18.27,2
-0.53,-0.7,-0.72,-2.11,2.71,-3.33,0.48,-0.59,-2.1,-3.93,-4.32,-23.84,0.88,0.3,0.68,-13.43,7.41,11.52,2
-0.53,-0.7,-0.72,4.24,-12.43,-3.82,-0.12,-0.74,0,-0.51,-13.6,26.45,-0.47,-0.6,-0.22,10.5,-1.86,-9.97,2
-0.08,-0.25,-0.42,-7.97,-6.08,-0.89,0.18,-0.59,-0.15,-12.23,2.52,-17,-0.32,1.05,0.38,-6.59,2.04,11.52,2
-0.68,-0.1,1.08,-10.9,7.11,1.55,0.93,0.46,0.15,-3.44,1.54,23.52,-0.17,-1.35,0.83,-8.06,9.37,-1.67,2
-0.23,1.1,-1.02,2.78,-4.12,-7.73,0.48,0.46,-0.6,-13.21,8.87,-21.4,-0.47,-0.3,-0.22,2.68,8.88,8.59,2
0.37,0.05,0.78,-0.64,-7.05,-1.87,0.78,1.06,0,6.81,-11.64,13.27,-0.62,0.6,0.68,10.5,1.55,2.24,2
1.57,-0.25,0.03,-4.06,0.27,-6.26,0.33,-1.19,0,3.88,13.75,-19.45,0.88,-0.45,-0.37,-0.25,4,7.12,2
0.97,-0.1,0.18,1.31,1.25,2.53,0.78,0.31,0.45,8.76,-6.27,28.89,-0.47,0.15,-0.67,-2.2,0.58,-13.88,2
-0.08,0.05,-0.72,15.47,5.15,0.58,-0.12,-0.74,-0.3,1.44,4.96,-25.3,-0.32,-0.45,-1.12,-7.08,2.53,9.56,2
1.27,0.05,-0.42,-14.31,4.18,-4.31,-0.87,0.01,0,-12.72,-4.81,13.76,1.48,0.45,0.08,-7.57,-9.68,4.68,2
0.82,-0.25,0.03,5.7,-2.17,1.06,0.78,0.76,-0.75,2.42,3.98,-18.96,-0.62,-0.45,-1.12,-1.71,5.46,-7.53,2
0.37,-0.7,0.03,-5.04,0.76,2.53,0.78,-0.44,-0.3,-3.44,-8.71,-10.66,0.73,-1.35,0.08,17.33,0.58,1.26,2
-0.08,0.95,0.78,2.29,0.27,9.36,0.18,-1.04,-0.15,8.28,0.56,-3.33,-0.17,0.45,-0.22,4.15,0.58,9.56,2
-0.08,-1,0.78,-6.5,-12.43,-2.35,-1.47,1.66,0.15,14.62,3.01,9.36,-0.17,1.2,0.08,-5.13,10.34,6.14,2
-1.12,0.32,-0.63,9.62,12.73,-17.04,0.22,-0.49,0.03,-1.13,0.84,-2.76,0.84,1.26,0.53,-18.34,12.12,35.79,2
0.68,-0.28,-0.03,2.29,4.92,11.77,-1.73,0.26,0.03,-9.92,5.23,-6.17,-2.61,0.51,0.53,-11.5,4.8,-19.87,2
0.08,-0.13,0.87,-4.05,1.5,-5.81,0.07,0.11,-0.12,8.14,-1.6,-3.24,0.69,0.36,-0.22,-9.06,1.38,6,2
-0.52,-0.28,0.72,-2.1,1.02,23.49,0.22,-0.04,0.48,-4.06,-6.97,38.26,-0.21,-0.39,-0.07,-3.2,-8.88,8.45,2
-0.07,0.47,0.72,5.71,2.48,-28.76,-0.23,0.26,-0.27,8.14,-0.14,-15.94,-0.96,0.06,0.98,-32.01,12.61,73.39,2
-0.37,-0.43,0.12,-4.05,1.5,-9.23,1.27,-0.64,-0.87,-5.53,2.79,-35.47,0.39,-0.54,-1.42,25.12,-24.5,-44.29,2
-0.37,0.32,0.12,-1.61,1.5,44.97,0.22,0.26,-1.47,6.19,-2.09,19.22,1.29,-0.54,0.08,10.96,11.63,-11.57,2
-1.12,0.32,0.87,-1.61,-0.94,26.9,0.97,1.01,0.03,-4.55,-5.02,-24.24,0.24,-0.39,0.23,-6.62,4.8,27.49,2
0.08,0.32,-1.83,-9.91,6.88,10.3,-0.38,-0.34,0.63,1.31,6.7,30.94,-0.21,-0.39,-0.52,21.7,2.36,-19.87,2
-0.37,-0.43,-1.08,-3.56,10.29,9.81,-0.53,0.71,0.03,5.7,-28.46,140.8,0.69,1.11,-1.87,-23.22,8.21,26.51,2
2.03,-0.28,-1.98,2.78,-28.77,-233.84,0.67,0.71,-1.47,-32.38,56.01,33.38,-0.36,-0.54,0.53,-150.66,84.39,410.3,2
1.28,0.77,-3.78,-7.96,-58.55,184.62,1.87,-1.24,-1.47,-25.06,180.04,-928.05,-0.36,-1.29,0.08,334.2,-108,-658.06,2
0.23,0.47,-5.58,-4.05,13.22,-21.92,1.42,-0.04,-3.42,-4.55,7.19,59.74,-0.96,-2.19,1.43,-7.11,-25.97,-87.75,2
-1.57,0.32,-6.18,-20.17,11.76,10.79,0.07,-1.39,-2.07,-0.16,24.76,45.1,-0.96,-0.39,0.68,19.26,-9.36,-45.75,2
-5.62,0.47,-5.58,20.36,12.73,-51.22,0.37,-1.39,-1.62,-4.06,52.11,-84.79,0.24,-0.69,4.28,-67.65,10.66,23.09,2
-5.92,1.37,-5.58,25.73,10.29,76.71,1.27,-2.59,-1.62,-53.38,38.44,-28.15,0.24,-1.74,1.73,96.9,-19.13,-170.75,2
-8.02,-0.28,-2.88,-230.13,179.73,341.85,-1.73,-1.54,-0.72,-127.6,-29.44,49.49,-0.96,-0.69,3.23,81.27,61.93,170.07,2
-3.82,-0.28,-0.48,-17.24,9.8,-64.4,-2.18,-3.49,0.48,-306.31,663.92,-1103.34,-0.51,0.81,1.43,-874.29,720.62,1072.35,2
-0.07,-0.28,1.92,-11.87,-4.36,104.54,0.07,-0.34,1.38,1.8,18.42,-105.78,0.24,0.06,1.73,47.58,-20.59,-98.98,2
0.98,0.32,1.32,-6.01,-9.73,-190.38,0.97,1.01,0.78,0.33,7.19,-28.64,-0.36,1.71,-0.67,-64.72,8.7,73.87,2
1.73,1.52,-1.08,17.43,-45.86,166.55,0.97,1.76,0.78,1.8,122.42,-488.6,1.59,-0.09,-1.72,58.32,-63.56,-86.28,2
2.03,1.67,-2.43,-110.99,62.54,516.16,2.02,2.06,-1.62,-0.64,-143.69,802.91,1.89,-0.99,-1.57,253.64,-119.23,-484.72,2
2.78,3.32,-1.68,54.54,3.95,88.43,3.52,2.51,-2.22,-41.17,51.13,121.76,2.34,-1.29,0.53,153.05,-39.15,57.27,2
4.28,2.72,-3.78,-6.98,7.36,10.3,5.92,2.21,-2.67,-28.96,10.6,51.44,0.84,-0.54,0.53,-3.69,-18.64,-61.87,2
2.18,2.27,-3.48,-42.14,7.36,217.82,5.77,-0.34,-0.57,-77.79,4.74,64.14,0.69,-1.44,2.18,-30.54,-2.04,-37.45,2
-1.57,2.72,-2.58,-33.84,72.79,197.31,0.67,0.71,-1.92,-10.9,-23.58,-96.02,-1.11,-1.59,1.88,130.59,48.74,3.56,2
-0.37,-0.13,-2.28,-418.12,-106.41,988.27,0.82,0.11,-2.07,83.83,-181.29,1018.67,0.39,-1.29,-0.22,-899.68,138.59,1072.35,2
-0.52,0.92,0.27,-9.42,8.83,19.58,-0.53,0.26,-0.72,3.26,1.81,-11.06,-1.56,0.21,0.08,21.21,-10.34,-31.11,2
0.08,0.32,-1.08,-19.19,4.92,-5.32,-0.23,0.26,-0.27,11.07,-3.07,3.59,-1.86,-0.54,-0.67,6.57,-7.9,-20.85,2
-0.52,-0.28,0.72,-3.56,6.88,7.86,-0.38,0.41,-0.57,-2.11,8.65,-17.89,-0.36,-0.84,-1.42,1.68,4.8,-14.5,2
-2.02,-0.13,0.57,-1.61,-0.45,-56.1,-1.58,-0.34,1.38,7.66,-8.44,-0.31,0.69,-0.39,-0.82,-33.47,14.56,13.82,2
0.98,0.77,-1.08,-2.1,-5.33,6.88,0.67,0.26,0.48,-4.06,3.77,8.47,-0.36,0.51,0.83,3.64,5.28,-20.36,2
0.23,0.17,0.72,4.74,0.53,2,0.67,-0.04,-0.27,7.66,4.26,-10.57,-0.96,-0.69,0.23,17.8,-8.39,-5.23,2
-0.97,-0.28,0.27,11.08,10.78,-5.81,0.37,-1.84,1.08,4.73,0.35,-14.96,-1.11,0.21,-0.67,-3.69,5.77,11.86,2
0.53,0.32,1.32,3.27,-8.75,-12.16,0.22,-0.04,0.03,6.19,-17.72,2.61,0.39,-0.09,0.08,-28.1,8.21,9.91,2
-0.97,-0.58,-0.48,-1.61,0.53,23.49,-0.38,0.41,-0.12,6.68,10.12,-0.8,0.09,0.21,-0.67,11.94,-7.9,-24.27,2
0.53,-0.88,0.12,-8.94,2.48,-8.74,-0.98,0.26,-0.72,-1.62,-4.04,-26.19,-1.26,0.36,1.43,-17.85,-1.55,4.05,2
0.68,0.47,0.27,0.83,-3.87,7.37,1.27,-0.34,0.18,-7.48,6.7,16.78,-0.36,-0.09,0.83,-6.13,-7.41,-13.53,2
0.08,0.32,0.12,-8.45,0.04,-10.69,-0.38,0.11,1.08,-6.02,3.28,-0.8,-0.36,-1.59,0.08,-21.27,12.12,16.75,2
-0.07,-1.03,-0.93,6.2,-3.87,16.16,0.22,1.46,-1.17,7.17,7.19,-4.71,0.09,-0.84,0.53,5.1,-10.34,3.07,2
0.68,0.47,1.17,-10.89,-9.73,-4.83,0.97,-0.04,0.03,-4.06,-6.49,-2.76,-0.96,0.06,0.68,-2.22,-5.46,1.61,2
-0.97,-0.28,-0.03,0.83,4.92,18.6,0.07,1.31,-0.12,-2.6,10.12,-11.06,0.24,-0.69,0.68,-2.71,4.31,4.54,2
1.58,0.47,-0.03,6.2,1.02,-16.06,-0.38,-0.34,1.38,4.24,-0.63,10.43,-0.96,-0.39,0.23,-0.27,-0.09,4.05,2
0.23,0.17,-0.48,-3.56,-12.17,-9.72,0.37,-1.09,-0.12,-4.06,-9.42,-18.38,-0.51,-0.99,-1.57,-10.52,0.89,16.75,2
-0.52,-0.28,-0.03,2.29,-6.31,2.49,-0.38,-0.64,-0.12,0.82,-8.44,11.89,-0.36,0.21,-0.67,15.84,-8.39,-19.87,2
0.98,-0.88,-0.33,6.69,-15.1,-23.39,0.07,-0.34,1.08,-5.53,-18.2,-2.27,-0.51,-0.69,-0.07,-3.2,7.24,50.93,2
0.23,-1.03,0.72,18.9,6.39,9.33,0.22,-0.04,0.48,-1.62,-1.12,-16.92,-1.26,0.06,0.68,12.43,-13.76,-23.78,2
0.08,0.32,-0.33,-3.56,11.76,-7.28,-1.13,-0.64,-1.32,10.59,8.65,9.45,-1.71,0.36,-1.12,-22.24,10.17,-7.67,2
-0.52,0.17,0.72,-8.45,1.02,-11.67,-0.53,-0.49,0.03,1.31,1.81,-14.96,0.99,0.36,-0.82,-18.82,2.84,22.61,2
0.68,0.92,0.27,-4.54,-5.33,3.95,-0.38,0.41,-0.57,2.77,6.7,14.33,-0.36,-0.09,0.08,4.13,10.17,-7.67,2
-0.15,0.55,0.19,-3.6,0.39,6.85,-0.33,-0.65,1.17,-1.01,6.1,-2.8,-0.12,-0.34,-0.08,-4.26,-1.59,9.38,2
0.6,-0.5,0.19,13.49,10.64,16.13,-1.53,0.1,0.72,-7.85,1.22,0.13,0.48,-0.04,-0.23,20.15,-7.45,-18.94,2
-0.15,0.25,-0.11,6.17,-12.79,9.3,0.72,0.7,-1.08,4.36,8.05,-15,0.18,0.26,-0.98,-9.15,-2.08,30.38,2
0.3,0.55,-1.01,-1.64,10.64,-2.42,0.72,-1.25,1.62,13.64,2.68,17.71,-0.27,1.31,0.82,7.46,-5.49,6.94,2
1.5,-1.4,0.64,9.59,-0.1,-4.86,-1.08,-0.35,-0.03,-4.92,12.45,18.69,-0.12,0.11,0.22,18.69,11.11,-10.64,2
1.35,-0.35,0.04,-7.99,2.34,-14.14,-0.93,-1.25,-0.18,-3.94,-1.71,30.41,-1.47,-0.04,1.12,5.99,-1.59,13.78,2
-0.75,-0.35,-1.16,5.19,-11.33,-36.11,0.72,-0.5,0.12,3.87,-3.18,-33.56,0.33,-0.64,0.67,-23.31,2.32,29.4,2
-0.6,0.55,0.19,-6.04,5.76,22.97,0.42,-0.35,-1.53,-0.03,6.59,-30.63,-1.47,-0.04,-0.68,32.85,-16.24,-68.74,2
0.3,-0.5,-1.31,-8.97,2.34,32.24,1.92,-1.25,-0.18,1.43,-11.97,70.93,-0.12,0.86,-0.08,20.15,3.29,-38.96,2
0.9,-0.8,0.49,2.26,-9.86,-11.21,0.72,-0.05,-1.38,12.66,-1.71,-30.63,-0.57,-0.49,0.07,-31.12,12.08,48.45,2
0.6,0.55,0.64,-6.53,5.76,-10.24,0.72,-0.05,0.12,5.83,-1.23,-5.73,1.08,0.86,1.42,0.62,-7.94,-27.24,2
0.6,-0.2,0.19,5.68,8.69,18.57,-0.48,1,0.12,-1.99,-13.92,98.28,-0.42,0.41,0.67,10.38,3.29,11.82,2
-1.8,-1.4,0.19,10.08,-5.47,-62.48,-1.38,-0.8,0.87,-18.59,13.42,25.03,0.18,1.31,0.82,11.85,-2.08,-24.8,2
-0.6,-0.95,1.09,-81.72,25.29,588.4,-0.93,-1.25,0.87,4.85,55.41,-172.72,-0.87,0.86,0.22,169.08,-27.96,-159.56,2
-3.15,-2.9,1.84,8.61,40.92,3.44,-3.63,-1.85,-0.03,-99.15,-71.05,645.15,-1.02,2.51,1.12,-155.14,83.86,274.03,2
-3.9,-3.65,2.59,23.26,-32.81,-90.8,-6.18,-3.05,3.57,-91.83,54.93,-264.52,-2.07,1.61,1.42,0.13,-9.89,-78.51,2
-3.45,-4.1,6.19,1.78,20.41,-24.88,-8.88,-2.9,10.62,11.2,-3.67,-85.81,-1.17,2.96,0.97,-76.04,9.64,49.91,2
-3.45,-4.4,6.94,-15.31,36.04,-122.54,-7.08,-0.5,11.22,162.08,-115,35.78,-1.77,3.56,4.12,29.43,-168.09,-97.06,2
-3.15,-2.45,6.19,-108.58,150.29,-387.68,-3.33,-0.5,12.42,-116.24,-93.02,569.96,-1.62,5.21,6.22,119.76,51.15,155.38,2
0,-2.3,5.14,39.37,-14.26,-80.06,-2.43,-1.85,7.92,29.26,-52.98,-79.46,-0.27,3.26,3.82,-1586.78,928.59,1072.31,2
3,-2,2.74,-49.01,16.99,123.06,0.42,-1.1,4.92,8.27,-26.62,130.5,1.53,3.41,2.47,96.32,-38.7,-138.08,2
2.1,-0.05,2.74,-12.87,-22.07,-269.51,-0.78,0.4,3.42,-9.31,13.91,-112.17,2.28,1.91,2.17,-137.56,57.49,252.55,2
1.65,-0.05,0.79,-41.68,-74.32,-465.8,0.27,0.25,0.87,-67.42,86.18,-332.88,0.78,1.91,0.97,-25.26,32.59,174.91,2
2.4,1.75,0.19,33.03,6.25,-219.71,2.07,0.85,0.72,7.78,20.26,-103.38,0.18,0.26,1.57,-201.53,49.19,207.14,2
1.65,1.9,-2.66,25.7,48.73,115.74,2.52,-0.35,0.27,41.47,-130.62,390.76,-0.12,0.41,2.47,139.29,-81.67,-204.48,2
-2.4,0.85,-1.16,-69.51,-76.27,-800.76,-0.48,-0.5,-1.83,140.1,-188.73,746.23,0.48,1.01,1.57,-81.9,-37.23,178.33,2
0.45,0.85,0.79,-19.22,-2.05,10.76,-0.78,0.4,-0.03,-476.11,933.83,-2980.34,-0.42,0.11,0.22,-1586.78,620.97,1072.31,2
0.3,0.55,1.39,4.71,4.3,0.99,-1.53,0.1,-0.03,-0.03,3.17,-19.4,-0.57,-0.04,-0.98,16.24,2.81,-11.61,2
0,0.4,0.49,-5.06,5.76,3.44,-0.18,0.7,-1.08,-7.36,-0.74,17.22,-0.57,-0.04,0.82,15.27,-2.08,-12.1,2
0.3,0.25,-1.76,6.66,5.27,-14.63,1.02,-0.5,1.32,-1.01,-5.62,10.87,0.18,0.26,-0.68,2.08,3.78,-9.17,2
0,0.4,-0.71,8.12,10.16,-9.75,1.02,-0.5,0.12,-1.01,0.24,4.04,0.18,0.56,0.82,-2.31,-1.1,0.11,2
-0.45,-0.05,-0.41,-3.6,2.34,-9.26,-0.48,-0.5,-2.13,-0.03,-2.69,-8.66,-0.27,0.26,0.52,-20.87,2.32,29.4,2
-1.2,-0.05,-1.16,0.8,-1.07,-5.84,1.02,-0.05,1.32,-3.94,-13.43,-15,0.93,1.01,-0.23,-2.8,-2.08,18.66,2
0.3,-0.2,0.64,2.26,-3.52,11.25,-0.93,-0.05,-1.08,2.41,-5.62,-5.24,-0.12,-0.64,0.97,17.71,6.71,-4.29,2
-1.65,0.85,-0.41,1.29,8.2,4.9,0.27,-0.5,-0.18,-8.82,9.03,-25.75,0.18,-0.49,0.82,3.06,-10.87,0.59,2
-0.15,-0.5,0.19,-7.5,-2.54,10.27,-0.18,0.7,-0.18,-6.38,-0.74,9.41,-0.12,0.41,0.22,12.34,-1.1,-20.4,2
0.45,0.4,0.49,6.17,-4.98,7.83,-0.48,0.25,-0.18,10.71,-2.2,8.43,-0.57,-0.04,0.07,7.46,-9.89,-7.22,2
-0.15,-0.5,0.19,-7.01,4.3,-3.4,1.47,0.7,0.12,2.41,8.05,25.03,0.78,0.86,-0.08,13.8,-3.05,-9.17,2
0.9,-1.1,0.04,3.73,3.32,-12.19,0.27,-0.8,-0.63,0.46,7.56,6.48,0.33,-0.34,-0.83,1.11,14.04,-14.54,2
0,-0.35,-0.71,2.75,-12.79,-3.89,0.42,0.4,0.72,-6.87,-12.94,7.46,0.18,-1.24,0.07,-3.78,-9.89,-7.71,2
0,-0.35,-1.61,5.19,-1.56,2.95,0.27,0.25,-1.08,-3.94,-0.25,-2.31,0.48,1.01,-0.23,16.73,-3.05,-7.22,2
-0.6,-0.95,1.09,-7.01,-1.07,0.51,-0.48,0.25,0.12,5.34,-10.5,0.13,0.93,1.01,0.52,-9.63,8.67,12.8,2
-1.65,-0.35,0.49,1.29,3.32,1.97,-0.48,-0.8,0.87,-3.94,-0.74,5.01,-0.87,0.86,-0.53,0.62,4.76,-7.71,2
0.45,-0.05,0.49,9.59,2.83,9.78,-0.93,2.2,0.57,0.94,2.19,-15.98,0.78,0.41,0.22,-3.29,-4.03,-6.24,2
-1.35,-0.5,0.19,7.64,0.39,-5.35,1.02,0.25,-0.18,-9.31,4.63,1.6,1.08,-0.34,0.67,-7.19,7.69,8.41,2
-1.05,0.25,-0.11,13.01,-1.56,-19.02,-0.48,-0.05,0.57,-0.03,3.66,-2.31,-0.12,-0.34,1.72,-0.85,3.78,-9.66,2
0.3,1.45,0.19,-10.43,1.86,-4.38,-0.18,-1.4,-0.03,2.9,7.56,-2.8,-0.12,1.61,-0.83,-15.49,1.34,3.52,2
-0.6,0.4,-0.41,11.05,-3.03,-18.05,0.27,0.7,-1.38,-5.89,2.19,-12.08,-0.87,-0.34,-0.08,-12.08,-0.12,15.73,2
0.3,-0.2,0.19,-5.06,-10.35,3.44,-0.18,-0.5,0.12,-1.5,-5.13,-4.26,-0.27,0.26,0.52,-2.31,-9.4,-2.34,2
-0.15,-0.2,-0.11,5.68,0.39,-6.33,-0.33,-1.1,1.47,-1.5,4.15,-11.59,-0.42,0.11,-0.53,-10.61,6.22,12.8,2
0.82,-0.81,0.53,-4.2,-7.48,-0.2,-0.49,-0.04,0.85,0.33,-8.41,11.05,0.38,-2.14,-0.81,-14.61,9.99,10.07,2
0.22,-0.21,-0.52,1.17,-15.3,-2.64,-0.49,0.71,-1.1,0.82,-13.78,-27.04,0.38,0.41,0.39,4.92,-2.71,11.04,2
1.27,-1.11,-0.67,0.68,-3.09,-11.92,-0.79,1.31,1.45,2.29,5.26,-14.83,0.68,-0.79,-1.26,-0.45,-4.17,-4.1,2
-0.53,1.14,-0.67,-4.69,4.24,-20.71,-0.19,0.26,-1.1,-11.39,6.24,-20.69,0.38,-1.39,-1.56,-14.61,0.71,23.25,2
0.22,0.24,-0.52,13.87,-16.27,9.57,0.71,0.26,-1.4,5.7,7.21,-36.31,-0.67,-0.94,-0.36,11.76,9.5,-19.72,2
-0.83,0.39,-1.87,-1.27,-22.62,14.45,-0.94,-0.04,-1.85,-6.99,37,-209.65,-2.62,-0.19,-0.81,-31.21,6.57,49.13,2
-2.18,0.39,-1.57,-19.83,18.88,-90.04,-0.79,-1.84,-1.55,37.44,-116.81,369.45,-2.17,-1.54,-0.21,-100.55,30.01,150.2,2
-2.33,0.99,-1.27,-18.36,141.93,220.02,-2.74,-0.64,-3.5,-79.26,-6.46,504.7,-2.32,-2.14,0.39,-153.77,43.68,123.83,2
-1.43,1.74,-1.72,8.01,8.14,-48.54,-5.59,-1.39,-5.45,25.23,9.17,49.13,-3.52,-2.14,-0.36,3.94,-9.05,0.3,2
0.22,2.49,0.23,24.12,8.63,17.87,-9.19,-1.09,-5.75,22.3,5.75,65.74,-2.62,-0.19,-0.06,47.4,-18.33,-55.36,2
0.52,2.49,-0.07,14.35,10.09,-127.15,-10.54,0.11,-8.9,19.37,-4.99,39.37,-2.17,-2.29,1.29,-37.07,-9.05,12.02,2
0.97,2.49,-0.52,-37.89,36.46,20.8,-6.04,1.31,-6.2,1.8,-33.31,-6.53,0.08,-0.64,-0.06,-31.7,-7.1,-46.09,2
1.57,1.59,0.53,60.25,25.72,184.37,-1.39,2.21,-4.1,-3.09,-31.36,184.39,0.38,-0.64,1.74,-10.22,5.11,30.08,2
2.02,1.14,0.83,206.25,-107.58,987.53,1.01,3.71,-0.2,-105.14,66.3,-564.63,1.58,-0.19,0.69,123.09,-9.54,-581.24,2
1.42,-0.51,1.13,-5.18,1.79,20.8,-0.19,0.26,1.3,6.19,2.33,6.17,0.68,2.06,-1.26,-18.52,-9.54,24.71,2
-0.83,-1.11,2.03,-6.64,-15.78,-62.21,-1.39,-0.79,2.35,-3.09,-7.92,11.54,0.23,2.06,0.84,-25.35,-2.22,-29.49,2
-2.78,-0.21,0.68,-21.78,10.09,199.02,-0.79,-1.09,2.2,19.86,-7.92,16.91,-0.22,2.06,2.79,115.76,-33.96,-189.64,2
-0.53,-0.81,-0.37,6.05,19.86,4.2,0.41,-1.84,1.15,28.65,-60.66,130.68,-1.12,0.11,1.44,-22.42,-36.89,-162.3,2
-0.68,-0.96,0.23,56.35,-68.03,-49.51,-1.54,-1.39,-0.8,-31.41,167.86,-731.63,-1.87,0.41,1.44,-39.02,-70.58,-183.29,2
-1.13,1.44,-0.52,35.84,-28.48,35.45,-3.19,0.11,-2,-69.98,40.9,-299.99,-1.87,-0.19,0.99,6.39,542.22,345.51,2
-0.53,0.84,1.28,19.72,10.09,31.54,-3.94,0.86,-2.3,19.86,2.33,7.14,-2.62,-2.14,0.99,63.51,-31.03,-0.68,2
0.82,1.14,0.83,-38.87,21.32,60.84,-3.34,2.21,-1.1,16.93,-13.78,77.46,-2.92,-1.09,2.79,36.66,-5.15,-32.9,2
-0.83,0.84,0.53,-125.78,14.98,-245.8,-1.39,3.26,-2.15,43.79,-42.1,191.71,0.38,-2.74,2.49,150.92,-23.21,152.64,2
0.37,0.84,0.53,66.6,42.32,136.52,-0.19,2.51,-0.2,-13.34,-33.31,139.47,-1.27,-1.84,2.04,-26.33,-11.01,27.64,2
-0.53,-0.81,-1.12,179.88,129.72,987.53,0.86,1.61,-3.2,-202.3,526.74,-753.11,0.08,-0.64,0.39,-226.04,53.45,-430.36,2
-0.68,0.24,-0.52,-12.99,1.31,-20.22,0.86,0.11,-0.8,2.29,6.73,5.19,-0.52,-2.29,-2.01,-2.89,2.18,18.85,2
0.52,-0.51,-0.97,-0.78,-8.46,-9.96,0.41,-1.09,-0.05,-7.97,-17.69,15.44,-0.22,0.71,-0.96,-1.43,4.13,4.21,2
0.22,-0.21,-0.07,9.96,13.51,10.06,-1.54,0.86,-0.5,-3.57,-2.55,-19.22,0.68,0.26,-0.66,-4.84,1.69,0.79,2
0.37,1.14,0.08,-8.11,5.7,-0.69,-0.49,0.71,-0.2,9.61,-7.43,44.74,1.28,1.16,-0.06,8.34,-6.61,-10.44,2
-0.08,0.84,0.08,6.54,-1.62,-10.45,0.11,0.41,-1.55,5.21,-3.04,-27.53,-0.52,-0.04,-0.66,-18.03,-1.24,4.69,2
-0.68,0.54,-0.52,-0.29,0.33,14.45,0.26,1.01,0.1,-1.13,-1.09,12.51,-0.52,-0.04,-0.66,5.9,5.11,-8,2
0.37,0.39,-0.37,-0.78,0.33,0.78,-0.49,-0.04,-0.65,10.1,4.77,-11.41,0.08,-0.19,-0.06,-9.24,3.15,13.48,2
0.22,1.44,-0.52,5.56,-1.62,14.94,-0.49,-0.79,-0.2,-1.13,-6.95,14.47,-0.37,0.86,0.69,19.08,2.18,-15.81,2
2.32,0.99,-0.97,-14.94,8.63,-6.55,-0.49,-0.79,-0.2,-1.62,-5.48,6.65,-0.52,-0.49,0.09,-9.73,-4.17,12.99,2
-0.08,-0.36,2.03,9.96,19.37,3.22,0.26,-0.49,0.1,-6.99,0.87,-7.02,0.08,-1.39,-0.06,7.85,-8.57,-8,2
-0.08,-0.06,0.08,-1.76,6.68,-3.62,-1.39,0.71,-0.65,-9.43,-14.76,8.12,1.28,-0.94,-1.11,-18.52,-2.71,6.65,2
-0.68,-0.51,1.13,-2.74,8.14,-3.62,0.11,1.31,0.25,4.73,-4.51,-19.71,0.08,0.41,0.39,0.04,3.15,10.07,2
-0.53,-0.06,-0.37,-3.71,-4.07,4.2,-1.09,-0.64,-0.8,8.14,0.38,-0.67,-0.37,0.86,-0.81,2.48,-7.59,-5.07,2
0.52,0.99,-0.07,14.35,-2.11,-4.1,0.11,1.31,-1.25,-6.02,0.87,-1.16,-0.22,-0.04,-0.96,4.43,-2.22,0.3,2
-0.23,0.54,-0.52,1.17,-1.62,-1.17,-0.79,-0.64,0.7,-4.06,-6.46,8.61,0.68,-0.79,-0.21,-4.36,-2.71,12.99,2
-0.08,-0.36,0.08,-13.48,5.7,-3.13,-1.09,0.86,0.25,-6.5,10.63,5.68,-0.22,0.71,0.84,0.04,-7.59,-4.58,2
-1.13,-1.41,0.68,7.03,8.14,2.73,0.11,-0.34,-0.5,-1.62,-4.02,6.65,0.08,-1.39,0.99,1.99,-1.73,0.3,2
-0.08,0.39,0.08,-4.69,-2.6,-9.96,-0.79,0.11,0.25,0.82,-2.55,-4.09,1.43,-0.04,-0.66,-6.8,-0.27,18.85,2
0.82,-0.06,-0.67,5.56,-4.07,-5.57,1.31,0.11,1.15,9.12,5.75,-6.53,-0.52,-1.09,0.54,-17.54,-7.1,-2.63,2
0.22,0.24,-0.07,-11.04,-10.41,-1.66,-1.39,1.01,-0.65,8.14,12.58,-3.6,0.23,-0.04,-1.26,-11.19,-10.03,1.76,2
-0.53,0.39,0.83,-4.2,-1.62,7.61,-0.34,0.11,1.9,0.33,2.82,-7.02,-1.12,-0.64,-0.06,0.04,6.08,-12.4,2
0.52,-0.51,-0.52,-9.08,2.77,-2.15,-0.49,0.71,0.1,-9.43,-8.41,14.47,0.68,-0.04,0.54,-0.45,-4.66,1.76,2
-0.83,-0.06,-0.67,4.59,-5.04,-4.59,0.41,0.11,0.25,-3.09,-2.06,-12.88,-0.67,0.41,-0.06,2.48,-20.77,6.16,2
-1.73,0.39,0.08,-10.06,5.21,-5.57,0.11,-0.64,-1.25,-6.02,-3.53,1.77,-0.52,-0.04,0.09,6.39,-8.08,-8.98,2
-0.83,-0.81,0.08,-2.74,-2.6,-5.08,0.26,-0.79,0.85,7.17,4.28,8.12,-1.72,-0.04,-0.21,-8.75,-3.68,-5.56,2
0.77,0.66,0.63,11.23,2.24,11.8,-0.7,-0.39,1.25,6.04,-2.32,-18.18,-0.24,0.92,0.07,5.43,1.52,-1.83,2
0.02,0.66,0.63,8.79,-10.46,-10.66,-1.3,-0.09,0.2,2.62,-0.85,1.35,0.96,-0.58,-0.23,-10.19,-3.85,12.33,2
-0.43,0.66,-1.32,-2.44,3.7,-2.84,0.8,-0.09,-0.1,5.55,6.96,-3.05,-0.39,0.02,-0.53,-5.8,-7.27,-15.5,2
0.02,1.11,-1.02,1.95,-4.11,-21.89,-1.45,0.06,-0.7,-5.68,-4.27,-8.42,-0.84,-0.73,0.22,-3.85,6.89,8.91,2
-1.33,-0.09,-0.12,-5.37,6.63,12.29,1.55,0.21,-0.1,-8.12,-1.83,1.35,0.96,1.22,-0.68,13.24,-5.31,-22.83,2
0.32,0.36,0.18,2.93,4.68,9.36,0.2,-0.39,0.35,-3.73,5.98,2.32,0.21,0.17,-0.23,-4.33,0.06,2.56,2
0.17,0.96,0.48,9.28,1.75,1.55,-1.45,-0.69,0.35,7.99,6.47,7.7,-1.59,0.32,-0.08,3.48,-1.41,3.54,2
0.77,0.36,0.63,10.74,0.29,8.39,0.2,1.26,-0.4,4.57,-1.83,3.79,-0.54,0.47,0.07,-1.89,-0.43,-8.67,2
0.62,-0.24,-0.42,-4.88,4.68,-15.54,0.35,0.21,-0.55,0.18,2.08,7.21,0.21,-0.13,-0.23,-9.7,8.36,25.03,2
0.02,0.36,0.18,-5.37,-0.69,-0.4,-0.4,0.21,-1,9.94,16.24,-2.07,-0.54,-0.13,-0.23,-3.85,9.33,-15.01,2
-0.73,0.51,-0.72,-4.88,-5.08,-2.84,0.5,0.36,0.35,6.53,-1.34,12.09,0.81,0.77,0.22,7.87,1.52,13.8,2
0.02,0.36,0.18,-2.44,1.75,-10.66,-0.4,0.21,0.65,0.67,-1.83,-15.25,-1.14,0.32,-0.08,3.97,-5.31,1.1,2
-0.73,-0.24,-0.42,7.81,6.63,30.36,1.55,0.21,0.95,-3.73,13.31,6.72,-0.24,-0.88,-0.23,-9.22,10.31,18.68,2
-0.43,-0.09,-0.57,2.93,8.59,-8.7,0.5,0.36,0.05,4.09,-3.78,-22.58,1.56,0.02,-0.08,5.92,-1.9,-12.08,2
0.17,0.51,0.48,-9.77,2.24,37.2,0.5,0.36,0.05,15.32,-7.2,7.7,1.11,0.02,-0.83,-13.12,10.8,37.72,2
1.37,-0.24,-0.72,9.76,-9.97,-45.32,0.95,0.06,0.05,-8.61,11.36,-53.83,2.16,-1.33,-0.23,-41.93,10.8,47.49,2
0.77,-0.84,-0.57,9.28,13.96,13.27,0.95,1.26,0.35,-5.68,14.29,-23.07,0.81,0.02,-0.83,27.89,-0.43,-42.85,2
0.77,-0.09,-0.12,1.46,4.19,50.38,0.95,0.06,0.35,-9.1,5.98,55.06,0.96,-0.58,0.82,50.84,-5.31,-47.24,2
0.62,0.96,-0.42,4.39,-1.18,-79.5,0.95,-0.39,-0.7,-2.26,29.42,-151,0.36,0.32,0.67,-18.01,-2.38,33.81,2
0.32,0.36,-1.32,60.55,52.53,483,1.1,0.66,-1.3,-42.3,98.76,-312.13,-0.24,0.92,-1.73,212.95,-75.63,-282.59,2
0.62,1.26,-3.12,22.46,39.84,173.43,-0.4,0.96,-2.5,17.27,-214.23,914.43,0.21,-1.33,-0.98,-89.78,42.05,128.54,2
2.27,2.01,-1.92,27.83,-44.15,262.29,-1.45,4.26,-5.65,17.27,27.47,49.69,-0.39,-1.03,-1.13,-158.63,30.82,64.58,2
1.82,3.21,-0.72,-14.65,48.63,-58.51,-1.45,6.51,-7.3,4.57,73.37,-98.26,0.96,-1.63,-0.23,65,-18.5,-120.48,2
2.42,2.31,0.18,-54.2,52.53,-43.86,1.1,11.16,-5.2,-10.07,45.54,83.38,3.36,-2.38,0.82,8.85,-36.56,-68.72,2
2.12,1.56,0.63,27.34,53.02,125.09,4.55,8.31,-1.45,-6.17,77.27,-188.59,4.86,-2.38,1.12,-39.49,17.15,63.11,2
2.12,0.66,1.38,-409.67,81.34,988.79,2.75,7.11,2.15,-87.71,130.5,613.16,4.86,-0.58,4.12,-43.4,150.45,260.38,2
1.22,-0.09,2.13,1.46,12.01,-21.4,3.05,1.26,3.8,-11.54,-26.73,175.18,2.91,0.92,0.07,-4.33,16.66,61.16,2
0.77,-1.29,3.03,13.18,-21.69,-192.79,-0.25,-1.14,5.75,10.43,-1.34,-118.28,2.91,2.72,1.57,-130.8,40.58,207.64,2
-0.43,-1.29,2.58,-101.08,16.4,254.97,-0.7,-1.14,2,26.06,-16.48,-132.93,-0.09,2.57,3.22,103.58,14.22,-114.13,2
-0.88,-0.39,1.38,60.06,-12.41,-105.87,-0.85,-0.54,1.7,48.03,-144.89,543.34,-0.99,1.22,1.57,-378.36,133.36,643.68,2
0.32,0.36,1.38,-49.81,53.51,228.11,-0.7,0.06,1.55,-18.86,-6.71,-142.21,0.81,1.07,0.97,28.38,-17.03,-338.74,2
1.37,-0.99,0.48,-32.23,-3.13,1.06,-0.7,1.56,1.25,-64.76,31.38,-18.67,2.46,1.67,2.32,89.9,18.61,84.6,2
0.17,-0.69,0.78,20.02,6.15,-75.6,0.95,2.31,1.55,14.83,73.37,-159.79,3.36,1.67,5.62,-17.52,20.56,33.33,2
0.17,-0.24,-0.42,203.61,33,-196.2,-0.25,0.81,2,-42.79,-91.67,359.26,2.01,0.77,3.52,16.17,-66.35,-157.1,2
-0.88,-0.09,0.18,275.88,-161.33,-220.62,-0.7,-0.69,2,-457.83,-697.14,1019.84,2.01,0.02,3.22,-624.45,366.76,1071.84,2
-0.73,0.51,-0.72,-10.26,9.56,5.46,-1.3,0.21,-0.1,-10.56,15.75,3.79,0.36,-1.03,-1.13,-0.92,3.96,3.54,2
-0.28,1.26,0.03,6.83,7.61,4.97,-0.1,0.96,0.2,2.62,-1.83,0.86,-0.24,1.22,0.52,-28.75,-4.83,13.31,2
0.17,-0.99,0.48,-9.77,8.1,-2.36,-0.25,0.36,0.35,7.5,-5.73,0.37,1.11,-1.48,-0.08,3.48,0.06,-0.85,2
0.02,1.56,-2.07,0.49,6.63,-1.38,-0.4,0.21,-0.1,-3.24,3.54,-2.56,-1.14,-0.43,0.22,7.39,-3.85,-2.81,2
-0.43,0.36,-1.77,5.37,-4.6,-10.17,0.5,-0.39,-0.7,4.09,-1.83,-3.54,0.21,0.47,-0.23,-23.86,14.22,32.35,2
-0.73,0.51,0.48,17.09,12.98,17.18,-0.1,0.96,0.2,0.18,-4.76,0.37,0.36,-0.73,1.72,14.71,0.55,-26.73,2
0.02,-0.09,-1.02,7.32,1.26,-11.63,-1,0.06,-0.4,5.55,4.52,0.37,-0.39,0.02,-0.83,-13.61,12.26,29.91,2
0.77,-0.09,-0.57,1.95,1.26,2.53,0.8,-0.09,0.2,-6.17,-5.25,8.67,0.81,0.02,0.22,3.97,-9.71,-17.45,2
1.22,0.66,1.08,7.32,-7.04,-14.07,-0.7,0.06,-1.45,-12.03,-6.22,-7.93,0.51,0.17,-0.68,-6.29,-0.43,18.19,2
0.02,-0.84,-1.02,-8.3,-14.85,-11.63,-0.85,1.71,-1.3,-5.19,5.98,8.67,-0.54,0.92,0.82,17.15,-5.31,-16.48,2
-0.88,1.11,-1.77,-9.77,-0.2,-5.77,-0.1,1.41,0.65,-11.05,-4.76,-25.51,0.21,0.17,-0.68,7.39,0.55,-7.2,2
1.37,0.51,-0.42,0,9.56,-11.63,-0.4,0.21,-0.1,-3.73,-0.85,14.04,0.96,-0.58,0.82,-12.63,3.47,-4.27,2
-1.03,0.06,1.23,16.6,-10.46,1.06,0.2,-1.14,-0.7,10.43,4.52,-8.91,-0.39,1.52,0.22,19.59,-9.71,2.08,2
-1.48,0.06,1.23,0,-1.18,-6.75,0.8,1.41,-1,-8.61,-5.25,-1.09,1.41,0.47,-0.23,-24.84,9.33,7.94,2
0.02,-0.84,-1.32,-2.93,-3.13,10.34,-0.85,0.66,-0.55,14.34,-1.83,-4.02,0.81,0.02,-0.53,11.78,-7.27,-25.27,2
0.17,0.39,1.28,2.81,-0.62,6.61,-0.34,0.09,-0.45,17.47,2.49,13.77,-0.49,-0.45,-0.76,1.24,6.97,0.88,2
0.17,-0.36,1.28,-3.05,-2.08,0.75,0.86,-0.36,-0.75,7.22,3.46,0.59,-0.34,-0.9,-0.16,-16.34,14.29,21.88,2
0.02,0.24,-0.07,4.27,8.66,2.71,-0.79,-0.66,0.75,-7.43,5.9,-25.78,0.41,1.65,0.89,8.57,0.62,-24.51,2
0.02,0.99,-0.07,-10.38,6.22,7.59,0.11,0.09,-1.5,-2.55,6.39,5.47,-1.24,0,-0.01,17.84,-8.17,-14.26,2
-0.43,0.24,0.23,8.67,1.82,-16.83,0.41,-1.11,-0.75,-15.73,-1.42,1.08,-0.49,0,0.29,-5.11,6.97,12.6,2
-0.73,0.84,-0.37,-1.59,-2.08,-15.85,0.11,0.39,0,-7.92,5.9,1.08,-1.09,-0.15,-0.61,3.2,4.04,26.76,2
-0.88,-0.51,-0.07,-5.98,-12.34,12.47,-0.34,0.39,-0.75,6.73,7.86,-21.87,-1.09,0.15,1.19,2.71,-3.29,7.23,2
0.17,-0.06,0.08,-5.98,4.75,-28.54,0.26,-0.51,0.15,7.71,11.76,-45.8,-0.34,-0.15,0.89,-15.36,4.04,25.29,2
0.02,0.54,-0.52,8.67,3.29,10.52,-0.34,-0.66,0,-4.99,8.34,1.08,-0.49,0,-0.76,30.05,-21.35,-55.27,2
-0.73,-0.36,0.08,15.01,11.59,70.58,0.26,0.69,-0.15,14.54,-2.89,50.39,-0.94,0,-0.01,46.65,-15.49,-70.9,2
-0.73,-0.36,-1.57,-9.89,-5.99,22.24,-0.49,0.99,-0.15,-0.6,-14.6,8.4,-1.09,0.45,0.14,12.96,-20.87,-74.8,2
-1.03,-0.06,-1.57,8.18,5.24,1.73,0.11,1.29,-1.2,19.42,-28.28,2.54,0.71,-0.75,-1.06,66.67,-64.81,-312.6,2
1.07,0.39,-3.82,24.78,-66.53,-161.36,1.01,0.24,-1.8,-32.82,175.34,-597.56,0.71,-1.05,-0.46,-194.07,73.37,392.97,2
0.32,1.44,-4.87,131.22,-39.68,-59.31,2.51,-0.66,-4.65,-108.51,-29.25,316.99,-0.34,-0.6,2.69,-48.07,12.34,-233.01,2
-0.28,1.89,-5.02,-2.57,6.71,-1.69,1.31,-1.11,-3.45,-2.06,32.27,-33.59,-0.19,-0.75,4.04,-13.41,-2.8,30.18,2
0.17,3.09,-4.72,5.74,15.01,-8.53,0.71,-3.51,-3.6,-2.55,20.55,19.63,0.71,0,5.09,-17.31,15.76,48.73,2
-2.98,3.39,-5.62,11.6,27.7,51.05,0.86,-5.61,-2.25,19.91,15.18,-49.71,0.11,0.15,4.64,89.13,-0.36,-27.93,2
-4.63,2.94,-4.42,15.5,9.15,28.1,0.26,-4.56,-2.55,-21.1,54.24,-17.97,0.71,0,3.29,-18.78,24.06,-19.63,2
-5.68,3.09,-3.82,22.34,-8.92,35.42,-0.34,-2.91,-2.25,-18.66,64.01,-132.23,-1.09,0.9,3.44,-31.47,36.75,145.9,2
-2.08,-0.96,-0.52,-31.37,540.4,496.36,-1.54,-2.61,-1.2,-122.18,-217.73,1018.59,1.01,0,2.99,860.62,-312.37,-1019.14,2
-1.63,-0.51,2.18,3.29,-2.08,-48.56,-1.69,-1.56,1.65,-0.11,8.34,-16.5,0.11,0.9,1.64,-21.22,22.59,64.36,2
0.32,-1.41,2.63,-0.12,2.8,-44.66,0.71,-1.56,2.1,-15.24,-11.19,54.3,1.31,0.45,0.89,8.08,-17.94,-58.2,2
-0.43,1.44,0.68,13.55,2.8,59.35,1.46,0.24,1.65,-1.08,36.66,-124.9,0.11,0.9,0.59,58.86,-32.1,-122.65,2
0.62,-0.81,0.53,-5.01,34.54,56.9,0.11,1.59,1.5,11.12,-40.48,106.54,0.86,0.9,0.14,154.56,-86.78,-388.28,2
1.37,-0.36,-0.67,41.87,-78.74,-182.84,-0.79,0.84,0.3,34.56,115.28,-728.9,1.91,0.75,0.74,100.36,-93.13,-382.42,2
0.17,-0.06,0.53,-130.01,106.81,80.83,-0.34,1.29,0.3,29.19,28.36,-417.38,0.71,0,-1.51,-412.33,-29.65,431.06,2
-0.28,1.14,0.83,-9.89,23.31,-11.94,0.71,0.69,-0.15,-48.45,80.12,16.7,1.91,-0.45,2.24,-102.27,27.96,40.43,2
0.02,0.99,0.23,-11.35,-3.55,110.62,0.41,1.29,-0.45,-20.13,-3.86,31.35,1.61,0.15,2.69,36.89,-28.19,-126.56,2
-1.03,0.84,-0.37,-5.49,-11.36,106.71,1.91,-0.51,1.35,-19.64,37.15,17.68,0.11,1.2,1.94,24.68,57.75,36.04,2
-0.73,1.14,0.08,38.94,48.21,-95.93,-0.79,0.39,-0.45,-60.17,51.8,-1.37,-1.09,0.45,1.94,102.32,16.24,12.11,2
-0.28,0.39,-0.67,79.95,-290.66,-49.05,-0.94,0.69,-0.6,-73.35,-43.41,327.25,0.71,-0.75,-0.46,-440.16,1.11,554.1,2
1.07,0.39,0.83,-8.42,7.68,-5.11,-1.54,0.09,0,-2.06,-3.86,-27.24,1.46,-0.45,-1.51,11.98,0.62,-12.79,2
0.32,-0.21,-0.97,11.11,-7.94,29.07,1.01,0.69,0.6,-9.38,0.53,5.47,-0.49,0,1.04,-8.52,8.92,20.41,2
0.17,0.84,-0.67,5.74,6.22,14.42,-0.34,1.29,0.75,-7.43,-11.19,10.84,-0.34,0.15,0.14,6.13,-7.19,-24.51,2
0.32,-0.21,-0.07,12.08,1.82,-17.8,0.26,0.99,0.15,-2.06,3.95,-9.67,0.11,-0.6,-0.16,-6.08,6.97,27.25,2
-0.43,1.74,0.23,12.08,5.24,7.59,0.11,0.09,0,15.52,-5.33,15.72,-0.34,0.45,1.19,19.8,-13.54,-46.48,2
0.32,0.54,-0.07,0.36,-5.99,-4.13,-0.34,0.09,0.3,-0.11,4.93,19.14,0.86,-0.15,0.59,4.17,10.87,24.32,2
-0.43,-0.51,0.23,-3.05,11.1,11.49,-2.14,0.24,-0.15,2.33,2.49,-9.67,0.26,-0.75,-0.01,10.03,-0.85,-16.7,2
1.22,0.99,0.68,4.76,-10.87,-6.08,1.31,-0.66,0,-2.06,4.93,-21.87,-1.54,-0.9,-1.36,-16.34,9.9,23.34,2
1.07,0.39,0.83,3.78,11.59,6.61,0.41,0.39,-1.2,5.26,5.9,5.47,0.11,0.45,-0.61,17.36,1.6,-25.49,2
-0.43,0.99,-0.97,-2.57,3.29,-23.17,-0.19,-0.51,0.9,0.87,6.88,-15.53,1.01,0,-1.06,-27.57,14.29,40.92,2
-0.28,0.84,0.08,-2.08,10.61,16.38,-0.49,-0.06,0.6,-0.11,-2.89,12.31,0.11,-1.35,-0.61,18.82,-6.71,-35.25,2
-0.73,-0.06,0.08,2.32,-5.01,-15.85,-0.19,0.99,-0.15,-1.08,2,-11.13,-0.19,0.75,0.29,-15.36,12.34,53.13,2
-0.28,0.39,-1.57,-15.75,-2.08,17.35,-0.49,0.24,0.15,12.1,-0.44,-1.37,0.11,0.15,-0.61,17.84,-12.57,-41.11,2
1.67,0.24,-0.07,-0.12,-0.62,-3.15,-0.19,0.99,-0.6,-0.11,0.53,4.01,0.26,-0.45,-1.06,-4.13,5.99,10.65,2
0.02,0.54,-0.52,4.27,8.66,16.87,0.41,-0.66,-1.2,-9.87,-2.4,1.56,-0.34,0.15,-0.16,21.26,-15.01,-35.25,2
0.77,-0.21,0.23,4.76,8.66,-21.71,0.71,0.24,0.9,-0.11,0.04,3.03,-0.49,0.3,0.29,-29.03,9.9,37.01,2
-0.73,0.39,0.83,-2.08,-13.8,11.98,-0.94,1.74,1.35,-3.53,13.72,-16.99,-0.49,-0.45,-0.01,11.98,-4.26,-30.37,2
0.02,1.44,-0.07,1.83,9.15,-19.27,0.41,0.84,1.2,-19.15,11.76,12.31,1.01,-0.75,0.74,-6.08,8.92,23.34,2
0.02,-0.21,-0.52,5.25,-3.06,6.12,0.86,0.39,-1.2,13.08,4.44,-6.74,-0.64,0.45,0.14,10.52,-2.8,-17.67,2
