MagX1,MagY1,MagZ1,AccX1,AccY1,AccZ1,MagX2,MagY2,MagZ2,AccX2,AccY2,AccZ2,MagX3,MagY3,MagZ3,AccX3,AccY3,AccZ3,Class
-0.97,-0.03,0.54,-3.56,0.97,-31.94,0.05,-0.36,0.06,3.42,-2.84,-15.96,1.12,-0.02,0.69,-24.67,9.94,43.53,2
-0.97,0.27,0.09,11.09,-1.47,6.14,-0.4,-1.11,0.06,-1.95,-5.77,-17.43,0.22,-0.17,0.54,4.63,-10.08,-36.06,2
0.53,0.87,-1.26,1.81,0.49,-20.71,-1.15,0.09,0.06,-11.72,-8.7,28.96,0.22,0.88,-0.21,-7.58,7.01,31.33,2
-0.22,0.57,-0.06,3.77,6.35,-1.67,-0.85,-0.36,0.36,-9.28,5.46,-3.76,0.82,1.48,0.99,-1.72,11.4,-5.78,2
1.58,1.47,0.54,2.3,10.25,16.88,0.35,0.84,-0.39,15.63,-4.3,-20.36,-0.23,0.13,0.54,25.63,-14.96,-57.05,2
1.88,1.77,-0.06,-4.05,-6.84,35.44,-1.0,0.24,0.21,25.88,-8.21,13.82,0.82,1.48,-0.51,-9.53,3.1,34.26,2
0.08,0.57,0.69,-13.32,-4.88,-73.45,0.2,0.24,0.21,-17.58,11.32,-65.28,0.37,0.73,-0.81,-58.85,31.42,121.17,2
1.58,1.47,-1.56,4.25,0.49,110.15,-0.25,0.99,-0.54,-25.39,81.15,-302.58,-0.08,0.73,-0.06,101.31,-42.31,-140.06,2
1.88,-0.18,0.24,-27.0,-35.65,103.8,-0.55,1.44,0.66,-11.72,-11.14,328.76,0.22,1.18,-0.21,-64.7,51.44,350.17,2
-0.97,0.27,2.79,107.28,-59.57,300.09,-1.75,0.99,3.36,216.31,45.01,79.25,2.32,1.03,0.99,-784.43,203.3,1074.72,2
-2.92,0.27,5.64,12.07,17.58,-50.99,-4.3,1.44,3.36,45.9,5.95,31.89,0.52,1.93,1.14,-34.92,5.06,3.98,2
-6.52,-1.08,5.34,-0.63,1.95,-42.69,-5.2,0.39,3.06,-3.9,31.34,-6.2,2.17,2.38,3.09,24.65,3.1,27.91,2
-5.77,-2.58,3.84,35.02,11.72,108.19,-6.1,0.84,4.26,21.49,49.9,-9.13,0.37,3.28,3.99,42.72,-11.06,-30.2,2
-4.42,-3.33,5.04,-2.09,40.53,-88.58,-3.85,0.24,4.41,27.35,-1.37,182.77,1.42,4.93,4.89,-45.66,32.89,95.78,2
-3.22,-2.58,6.24,-3.07,63.47,200.48,-3.85,0.69,4.86,-23.44,96.77,-213.23,0.52,3.73,3.84,129.14,8.96,190.51,2
-2.77,-0.63,6.54,15.49,10.25,19.81,-5.8,0.99,5.61,0.49,-10.65,42.14,2.02,3.28,1.74,16.84,-4.22,-25.8,2
-4.42,-0.18,6.24,0.35,-12.7,-110.07,-3.4,-0.51,4.86,-20.99,21.58,-15.96,-0.83,4.03,0.69,-40.78,22.15,111.4,2
-3.67,-1.38,4.29,-22.11,-47.85,-89.07,-3.25,-1.86,2.76,21.0,6.93,-61.86,0.22,2.68,2.34,-6.11,-4.71,24.98,2
-2.92,-0.48,1.59,49.18,-29.79,-46.1,-3.7,-1.41,1.56,-81.54,-20.9,333.16,-1.73,2.38,1.89,-3.67,12.87,77.71,2
-4.87,0.12,-0.06,-143.69,-129.88,276.65,-3.4,-1.26,-0.09,348.15,-37.51,-252.29,-0.83,1.48,0.99,-254.16,68.53,338.94,2
-3.22,1.77,-1.26,39.9,24.41,10.05,-1.6,-1.41,-3.39,48.83,-18.46,7.96,-0.98,0.43,1.14,-75.94,-14.96,-92.7,2
2.03,3.42,-3.06,0.84,17.09,63.76,2.9,-1.41,-0.69,-19.53,52.34,75.83,1.12,-0.77,2.94,-20.76,4.57,-39.96,2
2.48,4.17,-4.71,60.9,-8.3,105.75,3.05,0.24,-1.74,-29.78,-65.83,171.54,0.22,0.13,2.64,10.0,26.54,39.63,2
2.63,3.27,-3.66,-100.24,-84.96,266.4,3.8,-1.56,-0.54,-26.85,64.55,47.51,1.72,-0.92,3.09,76.9,23.61,49.88,2
0.98,1.77,-2.01,-21.14,239.26,-154.5,3.2,-0.66,-2.64,-138.67,-443.75,738.92,0.37,-0.02,1.74,3.65,-109.69,-620.04,2
0.38,-0.78,-2.31,-2.09,-17.09,13.47,2.0,-0.36,-0.69,1.95,-10.16,-11.08,0.22,0.43,0.09,-18.81,8.96,12.77,2
0.38,0.72,-1.11,12.07,-4.4,-7.53,-0.4,0.09,-2.19,-7.81,-0.4,-21.33,0.82,-0.47,0.69,3.65,-7.15,-0.41,2
-0.52,-0.48,-0.36,14.02,-10.74,-3.62,0.35,0.09,0.36,0.0,-6.74,-5.71,-0.08,-0.02,0.24,-2.69,0.17,7.4,2
-0.22,-0.18,-0.06,-10.39,-10.26,14.93,-0.85,0.39,-0.69,-7.81,10.35,-14.01,-0.23,-0.62,0.09,4.14,-27.17,-10.18,2
-1.27,-0.03,-0.36,-2.58,6.35,3.21,-0.55,-0.06,-0.99,-3.42,-7.23,17.73,-0.08,0.28,0.24,-2.69,7.99,-11.15,2
-0.07,-0.03,0.09,-2.58,3.9,-1.18,0.95,-0.81,0.21,3.42,-6.74,-12.54,-0.23,1.18,0.84,-18.81,-1.29,14.24,2
-0.67,-0.18,-0.51,2.79,11.23,6.14,0.2,-0.06,0.21,8.3,-5.28,29.45,1.12,0.73,0.69,-3.18,-3.73,21.56,2
-1.72,-0.78,0.54,-11.37,2.44,13.47,0.05,0.39,-0.39,-3.9,5.46,6.99,0.52,-1.67,-0.66,-10.02,-6.18,-7.25,2
-0.67,-0.63,0.24,-2.58,-3.91,-2.65,-1.15,-1.11,0.06,-2.93,1.07,-10.59,0.97,0.13,0.09,-10.51,8.96,20.1,2
0.08,-0.63,-0.51,5.23,2.44,3.7,0.05,0.09,0.06,13.67,6.44,1.13,-0.38,-1.07,-0.51,0.72,5.06,-3.34,2
-0.97,0.72,0.09,13.04,0.49,3.7,0.8,-1.11,0.06,0.0,-8.21,-14.5,-0.83,0.28,-0.51,8.05,7.99,-8.22,2
1.43,0.87,-0.51,-10.88,15.14,6.63,0.95,0.69,-0.54,1.47,18.16,3.57,-0.08,1.48,0.24,2.19,2.13,-21.9,2
-2.17,-0.03,-0.36,-10.88,5.37,-16.81,-1.0,-0.81,-0.99,-2.44,4.98,17.73,0.97,-0.62,-0.96,-33.45,12.87,43.04,2
-1.12,-1.08,-0.06,4.74,-12.7,-1.67,-0.25,-0.06,-0.99,-2.93,9.37,-33.05,0.82,-0.77,-0.51,12.44,-11.55,-21.41,2
0.38,-0.48,0.09,-8.93,-2.44,21.28,0.8,-0.36,-0.39,13.67,2.53,44.58,1.12,0.73,0.24,13.42,2.61,-7.25,2
0.53,-0.18,-1.26,-9.42,-6.84,-12.41,-0.85,0.09,-0.39,-4.39,4.0,-17.92,-1.73,-0.17,0.84,-25.15,8.96,44.02,2
-0.97,0.72,-0.36,5.23,3.42,-1.67,-0.25,0.99,-0.54,9.28,2.53,-14.01,-0.23,0.88,0.09,11.96,-5.2,-11.15,2
-0.67,0.57,-1.71,4.25,-0.98,-2.65,0.8,0.84,0.81,3.91,-7.23,5.03,-0.38,-0.47,0.69,10.98,-8.13,-24.83,2
0.38,0.27,-1.11,9.63,4.39,-5.58,-0.25,-0.81,1.41,-0.49,-6.74,16.26,1.42,-0.92,0.84,-10.99,-1.29,8.38,2
-1.12,0.57,-0.06,9.63,-1.95,-11.44,-0.25,1.44,0.21,-2.44,-3.33,-15.47,0.52,-0.17,0.84,-9.04,7.01,24.98,2
-1.12,0.57,-0.06,-4.53,-11.72,5.65,0.35,0.09,-0.39,5.86,6.44,-1.31,0.82,0.28,1.44,-0.74,-12.52,-22.87,2
-0.07,-0.78,0.09,7.18,-2.44,1.75,-0.25,-1.56,0.66,-6.35,7.91,-1.31,0.37,-0.47,1.74,-2.69,0.66,1.54,2
0.08,-0.18,0.69,-12.35,0.97,-3.14,-0.4,-0.36,0.36,3.42,1.07,8.45,0.37,1.03,0.69,-6.6,5.54,7.89,2
-0.52,-0.48,-1.11,12.56,4.88,0.77,0.95,-0.06,-0.54,-3.9,1.56,-2.29,0.37,0.73,0.54,19.77,8.47,-2.85,2
-0.97,1.17,-1.86,1.32,13.18,-3.14,0.05,0.39,-0.69,4.88,2.53,-2.29,0.37,-0.47,-1.11,-7.09,5.54,14.24,2
0.83,1.47,-0.66,-1.6,11.72,12.49,-0.25,1.74,0.21,-2.44,-3.81,-10.59,0.52,0.88,-0.06,2.19,1.15,3.49,2
-0.67,0.57,-0.51,7.18,-2.44,8.1,-0.25,-0.06,-0.09,7.81,-3.33,20.17,-0.53,0.13,-0.66,0.72,-5.69,-18.97,2
-0.67,0.12,-0.51,-8.93,-9.28,-5.58,0.05,-0.36,0.06,-5.37,-1.86,16.26,0.37,-0.02,0.24,-12.95,9.94,32.3,2
0.38,-0.48,-0.66,1.32,-0.0,10.54,-1.6,0.09,0.06,8.3,11.81,-24.26,-0.53,-0.17,-0.96,4.14,-7.64,-18.97,2
-0.22,-0.63,-0.06,-1.12,-0.49,4.19,-0.25,-0.81,0.21,-5.86,6.44,0.64,0.52,0.88,1.14,-10.02,-8.13,1.05,2
-1.12,0.57,-0.06,-5.51,-0.98,-15.34,1.25,-0.36,0.06,-0.97,5.46,9.92,-1.13,0.73,0.99,-19.29,-1.78,0.08,2
0.38,-0.03,-0.36,-12.84,-5.86,53.51,-0.85,0.39,-1.14,-8.79,17.67,-14.5,-0.23,0.13,0.09,14.89,-2.27,-27.27,2
0.08,-1.83,0.69,10.6,-0.49,22.74,-1.45,0.99,0.66,-11.72,16.21,-29.63,-0.23,0.13,0.09,-6.11,-11.06,-12.13,2
-0.07,0.72,0.09,-5.02,3.42,-28.04,-0.4,0.09,-1.89,13.19,-11.63,26.03,-0.98,0.88,0.09,12.44,-32.54,-106.37,2
-0.52,-0.48,-1.56,31.6,2.44,74.99,-0.4,0.09,-1.14,-23.44,32.81,-224.95,-1.73,0.13,-0.96,164.79,-107.25,-482.83,2
-0.97,-1.23,-0.36,200.54,-170.41,-154.99,0.65,0.99,-2.79,-77.15,61.13,98.78,0.22,-0.92,-0.21,-366.46,213.55,1074.72,2
0.38,1.17,-1.11,-418.6,141.11,306.92,-0.55,3.69,-5.94,141.11,-34.09,141.75,-0.38,-0.47,-1.56,-523.69,317.07,1074.72,2
-2.92,1.92,-2.61,0.84,-6.35,-64.66,-2.5,2.04,-9.84,-20.99,53.8,-22.31,-1.13,-1.52,1.44,30.02,-10.08,-18.48,2
-3.67,2.82,-0.51,-0.63,-15.14,-242.88,-4.0,1.59,-14.49,12.21,2.05,47.03,-2.78,-2.27,4.29,-24.67,22.15,43.04,2
-5.47,2.22,0.84,-8.93,11.23,-210.17,-9.25,-2.61,-11.79,16.11,30.85,10.41,-1.13,-2.27,7.29,31.97,-16.92,23.03,2
-5.32,2.82,0.69,-183.25,219.24,52.04,-9.55,-4.26,-5.49,-57.13,-162.02,419.1,-2.18,-0.92,8.94,157.95,0.66,-152.27,2
-2.62,-1.98,2.04,84.33,-497.56,-3009.97,-5.2,-4.41,1.56,-62.5,-1162.5,1018.16,-1.13,1.78,5.04,1549.55,-805.98,-2830.98,2
0.08,-3.33,1.14,-4.05,2.93,-3.62,-1.6,-2.91,5.46,-1.46,22.55,-68.21,-0.38,4.03,4.74,38.32,-30.1,-125.41,2
1.43,-1.83,2.19,39.9,-26.37,-80.77,-0.25,-2.31,5.91,6.84,27.92,-277.19,1.57,2.53,2.49,173.09,-97.97,-391.04,2
-1.12,-1.83,1.44,8.16,-77.15,-460.17,0.95,-2.31,2.16,27.83,148.53,-581.39,-0.83,2.08,2.19,-129.16,-13.5,103.1,2
0.53,-1.38,1.14,55.04,-6.35,-82.72,-1.45,0.24,0.21,182.62,-93.66,280.42,0.52,1.18,3.09,550.04,54.37,-843.19,2
0.83,-0.48,0.54,-53.36,-0.49,-149.13,-0.55,1.74,-7.44,-2.44,31.83,-107.76,1.12,1.03,5.79,-42.73,9.94,138.26,2
-0.97,-0.48,1.59,31.11,56.15,-111.05,-2.05,0.84,-6.84,36.13,-92.68,530.91,0.52,1.93,7.44,-49.57,11.4,50.37,2
-1.87,-0.18,1.44,-153.95,207.03,-43.66,-1.45,0.99,-0.99,-10.74,-100.0,273.59,1.57,0.73,5.79,93.01,52.91,83.57,2
-0.07,0.27,1.59,54.06,-27.35,-2429.89,1.85,-0.51,0.96,-149.41,-294.34,1018.16,0.97,-0.92,3.84,-192.63,-13.99,1074.72,2
0.98,-0.63,-0.06,0.35,7.32,-4.11,0.65,-0.81,0.66,-10.25,0.09,20.66,0.82,0.28,-0.51,10.49,0.17,-27.27,2
-0.67,-0.18,0.69,3.77,6.35,1.26,0.05,-0.36,-0.39,-7.32,14.25,19.68,1.12,-0.02,0.24,6.58,0.66,3.98,2
-0.07,-0.03,0.54,-2.58,2.44,20.3,-1.0,-0.06,0.21,-4.39,3.51,-22.8,0.22,0.43,1.14,10.0,-2.76,-13.6,2
0.08,0.57,0.24,-13.81,-11.23,-3.62,0.35,0.39,0.06,8.79,-5.77,6.01,-0.83,0.28,-0.81,-6.6,1.15,3.01,2
-0.07,0.27,0.09,-1.12,5.86,3.7,0.95,-0.51,0.66,7.33,7.91,-14.99,0.22,0.13,0.54,-6.6,-1.78,-19.94,2
-0.22,0.12,0.24,12.56,6.83,-24.62,0.35,0.39,-0.39,-12.69,3.51,8.45,0.22,0.43,-0.96,8.05,-4.22,19.61,2
0.38,-0.48,0.09,2.79,-9.77,-26.57,0.2,-0.06,-0.09,10.74,-4.79,7.96,0.82,-0.02,0.69,-18.81,1.64,16.68,2
-0.07,-1.23,0.84,11.58,2.93,10.05,-0.25,0.24,-0.09,1.47,-4.79,19.68,-0.98,1.18,1.89,-4.65,-0.8,-8.22,2
0.08,-0.18,-0.51,3.28,-5.86,-8.02,-0.25,-0.81,-0.54,-2.44,0.09,2.1,0.37,-0.47,0.24,-9.04,0.17,8.38,2
0.08,-0.18,-0.51,4.74,1.46,6.63,-2.05,0.39,0.81,-5.37,-7.23,6.5,0.52,0.88,0.54,0.24,-5.69,-0.41,2
0.08,0.87,-0.06,2.79,0.97,7.61,-0.25,-0.06,0.21,4.88,-0.88,-4.73,-0.98,0.88,0.54,2.19,2.61,0.08,2
2.03,-0.03,-0.66,0.84,-0.0,1.26,-2.5,0.09,0.81,1.95,-6.74,4.55,-0.83,0.73,-0.51,15.37,1.64,-12.62,2
-0.07,0.27,0.84,7.67,4.39,2.72,0.05,-0.36,-0.69,7.81,-8.21,-10.1,1.12,0.28,-0.81,-4.16,0.17,7.4,2
0.08,-0.63,-0.96,-3.07,6.35,11.51,-0.55,-0.51,-0.54,5.86,-2.84,7.48,1.12,0.73,1.74,3.65,-6.66,-28.73,2
0.53,-0.63,-0.06,4.74,-6.35,-8.02,-1.0,0.69,-0.54,7.33,0.58,2.59,-1.73,0.43,0.84,3.17,-0.8,14.24,2
0.08,-0.18,-0.06,4.74,5.37,-11.44,0.35,-1.11,-0.39,-4.88,7.91,-2.78,-0.23,0.43,-0.21,-9.04,-6.66,18.14,2
0.83,1.47,-0.36,6.7,-1.95,6.14,-0.25,0.99,-0.09,1.95,-1.37,7.96,0.37,-0.02,-0.51,-1.72,-1.29,-14.57,2
-0.07,1.47,0.09,6.7,-14.16,4.68,-0.25,-0.06,0.66,-2.93,5.46,-12.54,-0.23,0.43,0.09,-6.11,-2.76,0.56,2
0.83,-0.03,-0.36,4.74,3.42,11.03,0.05,-1.41,0.06,-1.46,12.3,3.08,-0.53,-0.92,-0.66,12.93,-7.15,-12.62,2
1.43,0.12,0.24,-5.02,-2.93,-5.58,0.95,-0.51,-0.99,9.77,-3.33,6.99,0.52,0.88,-0.66,-11.97,13.84,2.03,2
-1.72,-0.03,-0.36,2.3,-7.81,5.65,0.2,-0.51,-0.09,-0.97,-1.37,4.55,0.22,-0.17,-0.66,-9.04,7.99,-5.29,2
-0.52,-0.48,-1.11,1.32,-0.49,-5.58,0.35,-0.36,-0.69,3.91,7.91,-7.17,0.22,0.13,0.09,-10.51,17.75,16.68,2
0.53,-0.63,1.44,-2.09,8.3,7.61,0.35,0.39,0.36,5.86,-3.33,11.87,-0.08,0.28,0.69,-9.53,8.96,-7.25,2
1.13,-0.48,-0.66,-9.42,1.46,-0.69,-1.45,0.24,0.96,1.95,3.02,-19.87,-0.08,-0.02,0.69,-14.41,8.96,5.94,2
-0.07,1.17,0.09,-6.0,1.95,-0.21,0.05,-0.66,0.36,-4.39,-0.4,19.19,-0.83,0.73,0.69,1.21,4.57,-0.9,2
0.08,0.57,-0.06,-3.07,11.23,7.12,0.05,-1.11,0.06,0.49,-5.28,34.82,0.97,0.13,-0.21,29.53,-1.29,-52.66,2
-0.67,0.57,-0.51,6.21,-8.3,-25.11,-0.55,-0.06,-0.09,-1.95,0.09,46.54,-0.83,0.73,-0.06,-20.27,7.99,66.48,2
0.83,0.72,-0.66,6.21,-9.77,21.28,0.35,0.39,-0.69,-8.79,23.53,-79.44,-0.53,0.13,-0.21,-7.09,-5.2,-6.27,2
-0.22,0.87,-0.51,-2.09,-0.49,-7.04,-1.45,0.24,-0.54,-6.35,-2.35,6.99,0.52,-1.37,-0.96,-4.65,2.13,12.28,2
0.08,-1.38,-0.96,15.49,-20.51,-60.75,0.95,0.69,-0.99,-7.32,-7.72,67.53,-1.13,-0.02,-0.06,-30.04,4.57,57.21,2
0.08,0.57,-0.51,-36.27,-6.84,-95.42,0.95,1.44,0.66,-6.35,-17.49,-75.53,0.52,-0.92,0.54,-12.95,31.91,66.97,2
-0.07,-1.23,0.54,-25.53,-113.77,118.94,1.25,0.84,0.81,-30.76,-105.86,651.03,0.82,-0.47,0.69,191.64,-59.89,-252.37,2
1.43,0.12,5.04,-41.64,25.39,-121.3,0.05,0.39,4.26,169.92,-199.13,648.59,-0.08,-0.02,0.99,-480.23,222.83,1074.72,2
4.13,-2.73,7.89,-2.09,2.93,4.68,-0.4,2.79,5.76,-18.06,17.18,-34.03,0.97,1.63,3.09,-8.55,14.82,25.47,2
11.03,-6.93,9.39,10.11,17.58,169.23,0.2,5.94,5.91,0.0,32.32,44.58,2.32,1.03,4.29,-10.99,2.61,-45.82,2
9.68,-6.03,6.99,36.48,-9.28,-99.33,1.4,6.69,5.16,-36.62,23.04,58.26,1.42,3.13,4.14,6.1,21.66,104.57,2
8.48,-3.33,7.44,-5.02,65.43,262.98,-2.05,6.84,3.51,-22.95,19.62,-41.84,1.57,3.28,3.54,127.19,-7.15,-109.79,2
3.68,-1.68,5.19,410.99,-433.6,-3009.97,0.35,3.54,3.81,1.47,-279.69,73.39,-0.23,1.93,1.59,275.14,27.03,68.44,2
0.83,0.72,4.44,7.18,4.39,-0.21,0.65,2.19,5.16,9.28,6.93,-27.68,0.37,2.08,0.24,6.1,0.66,-7.25,2
2.18,0.87,2.19,-26.02,12.21,75.97,0.95,0.69,3.66,-4.39,-5.77,126.62,2.77,2.83,0.69,41.25,-7.15,-36.06,2
0.98,0.57,0.24,23.3,-7.81,-15.34,-0.55,0.99,1.71,-12.21,71.87,-121.92,0.97,1.93,1.14,-4.16,38.75,317.95,2
0.38,-2.43,2.04,-111.96,5.37,338.17,-0.4,-0.66,0.81,-45.41,160.74,-776.22,-0.08,0.73,0.69,315.67,-126.78,-726.97,2
0.98,-1.38,1.44,-20.65,28.81,11.03,-2.2,1.44,2.91,-31.25,28.9,24.57,0.97,1.93,2.64,7.07,-52.07,-30.69,2
0.38,-0.78,2.04,-34.81,39.55,108.68,-4.45,0.09,3.06,-52.24,46.97,68.02,1.42,2.68,2.64,-32.48,1.64,-34.1,2
-0.67,-4.08,1.14,-22.6,32.71,111.12,-3.7,-0.66,5.76,-64.45,41.6,350.25,1.72,2.38,5.94,-23.69,6.03,104.08,2
-0.67,-0.18,1.44,-211.57,101.07,310.34,-1.75,1.44,1.41,-134.28,-42.88,339.51,1.42,0.88,3.09,-56.89,-43.77,-4.81,2
-0.67,-0.18,0.69,133.16,4.39,120.89,-0.25,-0.51,0.66,-146.97,380.95,-1556.98,-0.08,0.73,-1.86,1065.18,-174.14,-2010.18,2
0.98,0.12,0.24,7.67,-6.84,-11.44,-0.55,0.24,-0.09,3.42,-14.07,50.93,2.17,0.13,-0.21,0.24,14.33,12.77,2
-0.22,-0.18,-0.51,5.23,-11.72,-6.06,0.95,0.69,-0.54,-9.28,-2.84,6.5,0.97,-0.62,0.54,-12.95,0.17,10.82,2
0.53,-0.63,0.24,3.28,3.42,15.42,-0.4,-1.11,-0.39,11.23,-2.84,3.08,-0.08,-0.02,1.44,12.44,-8.13,-13.6,2
-0.52,1.17,-1.11,9.63,15.62,9.56,0.05,0.39,0.36,-5.37,1.07,28.47,-0.23,-0.62,0.09,10.98,0.17,0.56,2
0.98,0.57,0.24,-3.56,-6.84,11.51,0.8,1.29,0.06,5.86,-12.6,-11.57,-0.53,0.88,-1.41,-0.25,1.64,-1.39,2
-0.07,-0.48,0.84,-0.63,7.32,1.26,-0.55,0.99,-0.09,6.35,8.88,-11.57,0.37,-1.07,0.24,2.68,-8.13,0.56,2
-0.67,-0.18,-0.06,12.07,-21.0,-12.41,-1.0,-0.81,-0.99,10.26,-12.6,6.5,0.52,-0.92,0.84,-5.13,2.61,13.75,2
-0.52,-0.03,0.84,10.6,-9.77,3.21,0.05,0.09,-1.14,6.35,5.95,-5.71,0.97,-0.62,-0.21,-7.09,12.87,4.96,2
-0.22,0.12,-1.26,-7.46,0.49,-7.04,0.35,0.84,0.36,0.0,-5.77,0.15,-0.98,0.13,0.54,2.68,2.13,0.56,2
0.08,0.87,-1.26,-6.49,-13.67,23.72,1.7,0.84,-0.69,6.84,12.79,-12.54,-1.43,0.43,0.54,1.7,-21.8,-18.97,2
-0.97,-0.48,0.09,-6.0,-5.37,-5.58,0.95,-0.81,-0.99,1.47,6.44,13.82,-0.08,-0.02,0.69,-8.06,15.8,32.79,2
-0.97,0.27,0.54,12.07,-2.44,1.75,-0.55,0.24,-1.29,-7.32,-3.81,-16.45,0.22,0.13,0.09,1.7,-9.59,-1.88,2
-0.97,-0.03,-1.56,2.3,-2.44,-0.69,0.2,-2.01,0.21,-11.72,-1.86,-12.06,0.97,0.43,-0.66,-6.6,-3.73,-3.83,2
-0.97,-1.23,-1.11,-5.02,1.95,3.7,0.35,1.29,-2.19,-13.67,5.46,12.85,0.22,0.43,-1.41,-2.2,11.4,10.33,2
1.58,0.72,0.09,-4.53,-4.88,-4.6,-0.4,0.84,0.81,3.42,12.3,-24.75,0.82,-0.47,0.69,2.19,5.06,5.94,2
-1.57,0.12,-0.06,3.28,4.88,10.05,0.05,0.39,0.81,3.42,4.98,14.31,-0.08,-0.02,-0.06,3.65,2.13,-10.18,2
-0.22,-0.63,-0.51,-3.07,-2.44,0.77,0.65,-0.06,-0.09,1.47,1.56,-15.96,1.12,-0.77,-0.51,6.1,2.13,10.82,2
-1.27,-1.68,0.84,0.35,-0.98,5.17,0.95,-0.06,-0.99,-6.35,1.56,6.5,1.12,0.73,0.24,1.7,-10.57,-9.69,2
-0.97,0.72,0.09,16.95,-4.88,1.75,0.05,0.39,-1.14,-1.95,-5.28,-17.43,-0.38,-0.02,0.24,-4.65,9.94,15.7,2
-1.87,1.32,0.24,-5.02,-0.49,5.65,0.35,0.09,-0.69,-12.21,2.05,5.03,-0.53,0.43,0.09,-10.02,10.91,3.01,2
0.08,-0.63,-0.96,7.18,20.99,4.68,-0.55,-0.81,1.71,-1.95,-12.11,-15.47,-0.38,-0.77,0.24,14.89,1.15,-8.22,2
-1.27,1.92,0.09,-3.07,-5.86,7.61,-0.25,-0.81,-0.09,-2.93,-6.74,6.99,0.22,-0.62,0.09,1.7,6.03,-0.41,2
-0.97,-0.03,0.54,-4.53,-5.86,-6.55,0.65,-0.06,0.21,-0.49,10.83,-13.03,0.22,-0.62,-0.66,-3.18,7.5,35.72,2
-0.67,-0.18,-0.06,0.35,1.46,9.07,-0.25,-1.26,-0.54,-6.35,-2.35,-12.06,0.97,-0.62,0.54,16.35,-5.69,-33.62,2
-0.07,0.72,0.54,21.83,0.49,-22.18,-0.25,-1.26,0.21,0.0,4.49,-6.68,-0.08,-0.02,-0.51,-14.41,4.08,17.17,2
-0.07,0.27,1.29,13.53,-0.49,15.91,1.4,-0.81,1.41,-8.3,0.58,0.15,0.52,0.13,0.54,11.96,-8.62,-17.99,2
-0.52,0.27,0.09,-8.44,-5.86,-6.06,0.35,0.09,-0.39,-3.9,10.35,-3.76,0.37,1.03,0.69,-5.62,10.91,19.12,2
-0.07,0.27,0.54,-0.63,8.79,10.54,1.25,0.09,-0.39,7.33,13.76,-9.13,0.37,-0.47,-0.06,-0.25,-4.22,-2.37,2
0.38,1.47,0.54,7.18,-6.35,-14.37,0.8,0.09,0.06,-1.46,6.44,-51.12,-0.08,0.28,-0.06,-22.71,9.94,13.26,2
-0.52,-0.48,0.54,3.77,8.79,38.37,0.35,-0.36,-0.69,-0.49,16.21,-78.46,1.57,0.73,-0.51,35.88,-15.94,-61.45,2
0.98,0.57,-0.96,-8.93,3.9,3.21,0.65,0.69,-0.54,-3.9,-22.86,90.0,-0.23,-1.37,0.84,83.24,-28.64,-164.96,2
1.88,-0.63,1.44,-10.39,-5.37,19.33,2.9,0.39,1.26,-20.99,42.57,-238.62,-0.23,0.88,0.09,167.23,-82.35,-335.37,2
2.03,-1.98,-0.36,-121.72,-62.5,-77.35,2.45,0.09,1.56,14.16,26.46,136.87,1.42,0.88,-1.41,-143.32,110.04,630.94,2
2.93,-1.23,1.59,205.43,395.02,366.98,3.8,2.94,4.11,146.49,-81.94,343.41,2.32,4.03,0.24,-716.07,265.31,999.1,2
2.18,-3.33,2.64,30.62,20.02,-91.51,6.65,1.44,8.31,57.13,-18.46,84.62,5.32,4.93,2.34,-48.1,-6.18,-7.25,2
4.13,-3.48,2.79,-6.98,25.88,46.18,5.75,-2.61,16.86,-20.02,73.82,-72.11,6.07,8.08,7.44,4.14,4.08,1.54,2
2.93,-5.13,3.69,23.3,33.2,148.72,3.65,-7.11,19.56,-6.35,2.05,95.85,5.92,8.53,7.29,25.63,-27.66,-23.85,2
1.43,-3.33,5.34,10.6,-38.09,-96.4,2.3,-8.76,16.71,3.91,-6.25,142.24,4.12,8.38,8.19,-101.33,23.12,144.12,2
0.38,-3.48,6.39,211.77,-216.8,812.29,-0.4,-5.16,14.61,-126.95,232.03,-583.83,5.92,6.73,8.34,255.61,-14.48,-387.62,2
0.83,-3.48,5.19,-5.51,5.86,10.05,0.65,-2.76,9.81,-10.25,-8.21,-28.66,1.12,5.38,5.49,20.74,-24.73,-52.17,2
-0.52,-2.73,5.94,8.16,13.18,117.96,-0.85,-4.11,8.76,18.07,-7.23,-27.19,2.32,6.43,5.04,78.36,-38.89,-146.9,2
-0.07,-1.98,3.69,18.9,24.9,108.19,-0.55,-3.06,5.91,15.63,24.02,-72.6,0.82,4.33,3.54,111.08,-67.21,-271.9,2
0.08,-1.83,3.84,211.29,-105.47,-131.55,1.4,-0.81,3.66,6.35,133.88,-659.03,0.97,4.18,1.59,327.87,-166.33,-779.22,2
-0.07,-1.98,2.49,-14.79,2.93,-139.85,2.0,2.04,4.26,42.97,54.29,-56.0,2.47,3.43,2.64,-296.64,55.84,110.43,2
2.18,-1.38,1.44,-30.9,53.22,-140.83,4.7,2.49,7.86,18.07,28.9,-36.96,2.32,2.53,2.19,70.55,7.01,34.74,2
1.88,-2.58,3.09,-23.09,64.45,253.21,6.05,0.09,15.66,33.69,-8.7,174.47,3.37,5.23,6.39,2.19,-46.7,26.44,2
0.08,0.12,3.39,-118.79,-10.74,386.51,3.65,-1.11,12.21,-22.95,87.98,-58.44,4.57,3.13,5.94,-26.62,2.13,87.97,2
-1.27,0.27,1.29,-83.64,391.11,-573.94,2.9,-0.66,5.76,376.47,-932.04,1018.16,3.37,2.38,5.19,-186.78,95.39,1006.91,2
0.38,-0.48,0.09,2.3,4.39,-17.3,0.65,-0.51,0.66,-5.37,8.39,-26.22,-1.13,-0.47,0.99,-28.08,6.52,36.21,2
-0.52,0.72,0.84,12.07,-24.9,4.19,-1.6,-1.86,2.31,4.88,4.49,6.99,-0.83,0.73,0.69,-1.23,20.19,-2.85,2
-0.07,-0.48,-0.36,-0.14,4.88,3.21,-1.0,0.24,-0.54,9.77,-8.21,16.75,-0.98,0.43,-0.66,0.72,-2.27,-16.53,2
-0.97,0.72,0.09,-1.12,12.69,-7.53,0.2,-0.06,-0.54,13.67,4.0,-28.17,-1.13,0.73,0.24,-5.62,18.73,20.58,2
0.38,0.72,0.09,-2.09,4.88,12.0,-1.15,-0.66,1.26,-0.97,14.25,38.24,0.22,-0.17,0.54,7.07,-12.03,-22.87,2
-1.12,-0.63,0.24,5.72,-13.67,10.05,-1.45,-0.06,0.21,4.88,-6.25,2.59,0.37,0.28,0.99,-4.65,-2.27,-6.76,2
0.53,-0.63,0.24,-6.49,-1.47,-4.11,0.05,-1.41,0.36,-7.81,2.53,-18.4,0.97,-1.37,0.84,1.7,-0.8,3.49,2
0.53,-0.18,-0.96,5.23,0.49,13.47,0.05,-1.41,0.36,4.4,-16.51,14.31,-0.83,-0.77,0.69,3.65,-3.25,-13.11,2
0.08,0.57,0.24,-4.53,-3.42,2.24,0.35,0.39,0.36,5.37,4.98,-12.06,0.52,-0.17,0.09,-14.9,5.54,33.77,2
-1.27,0.72,-0.36,4.74,8.3,-4.6,-1.15,-0.36,-0.69,-6.83,6.93,6.99,-0.53,-0.17,0.09,-2.69,-1.78,-0.41,2
0.08,-0.63,-0.96,-2.58,-0.49,20.79,0.8,-0.36,0.06,-5.86,1.56,-5.22,-0.83,-0.02,-0.81,1.21,-14.96,-10.18,2
-0.97,-0.03,0.84,-5.02,-1.47,-9.48,1.25,-0.36,-1.14,-1.95,2.53,0.64,-0.08,-0.47,-0.51,-13.44,-1.78,26.44,2
0.38,0.27,-1.11,2.79,0.49,-6.55,-0.4,-1.86,-1.14,6.84,-3.33,19.19,2.32,0.73,-0.51,10.98,-0.32,2.03,2
1.13,-0.48,-1.11,-12.35,-3.42,-6.06,0.05,-0.36,0.81,-1.46,4.98,-13.03,-0.38,0.73,0.69,-14.9,-0.32,-3.83,2
0.38,0.72,-0.66,2.3,0.49,-4.11,-0.25,0.69,1.41,-7.81,-6.25,-4.73,-0.08,-0.47,-0.81,0.24,2.61,4.47,2
-0.22,-0.63,0.69,-8.93,-10.26,-0.69,1.85,-1.56,-0.09,0.98,-3.33,6.5,-0.53,0.88,-0.21,7.56,1.64,5.45,2
0.53,0.12,0.24,12.56,3.9,18.35,-0.4,-0.36,-1.14,10.26,-1.37,2.59,-0.98,-0.17,0.54,6.1,6.52,-22.87,2
-1.72,-0.03,-1.11,-2.09,-8.3,-11.44,0.05,-0.66,0.06,-5.37,12.3,-8.15,-0.38,0.28,0.24,-19.78,18.73,34.26,2
-0.67,2.07,1.44,5.23,7.81,18.84,0.35,0.09,1.56,1.95,14.74,-17.43,-0.38,0.28,-1.11,26.6,-6.18,-31.66,2
0.38,0.27,0.09,4.74,-5.37,-9.97,1.4,-0.51,-0.09,5.86,-6.74,8.45,0.82,-0.02,0.24,1.7,-2.76,-0.41,2
-0.22,0.57,-0.51,4.74,-1.95,3.7,0.05,0.84,0.81,-11.72,5.95,-33.54,-0.08,-0.47,0.99,0.72,15.31,11.31,2
-0.07,0.27,-1.11,-1.12,10.25,9.56,-0.85,-0.36,0.06,-5.37,6.44,26.03,-0.38,-0.02,0.24,0.72,7.01,-10.67,2
0.38,-0.03,0.09,-4.05,-5.86,-9.97,0.35,-0.36,0.06,-4.88,-7.72,-7.66,-0.53,0.43,0.54,-17.34,7.99,23.03,2
-0.07,0.72,1.59,-1.6,-9.28,10.54,0.65,-0.51,-0.09,11.72,2.05,-18.4,-0.23,0.13,-0.66,10.0,2.61,8.87,2
0.53,0.12,-0.96,-1.12,-3.42,6.14,-0.85,-1.11,-0.69,9.28,-8.7,8.94,-0.53,-0.62,1.14,1.7,4.08,-4.81,2
0.08,0.12,-0.96,0.35,-4.4,-5.58,-0.25,-0.51,-0.09,-0.49,4.0,-2.78,0.37,-0.77,-0.06,-14.41,11.89,19.12,2
-1.27,-0.03,0.84,-3.07,0.97,5.17,0.05,0.39,0.06,-12.69,1.07,-1.31,0.22,-0.62,0.09,-10.99,-5.2,5.94,2
-1.57,0.12,0.24,-8.93,-0.98,-9.48,0.2,0.24,-0.99,-5.86,-9.67,-1.31,0.37,0.28,-1.11,-3.67,-0.32,-0.9,2
-0.22,-0.18,0.69,9.14,-9.77,11.03,0.35,-0.36,-0.39,-8.3,-6.25,4.55,0.37,-0.47,-0.51,20.26,3.1,-14.08,2
0.83,0.27,0.09,11.09,-5.37,5.17,0.35,-0.36,0.36,0.49,2.05,4.55,-0.23,-0.17,0.54,0.24,2.61,-2.37,2
0.53,1.32,-0.96,-5.51,16.11,11.03,0.05,2.04,-1.89,9.77,9.86,-4.73,-0.23,-0.92,-0.21,2.68,-10.57,-18.97,2
-0.52,0.72,-1.11,-0.14,-2.93,15.42,0.2,0.99,-0.09,11.72,-10.65,16.75,0.22,0.13,0.54,-4.65,-1.29,2.03,2
0.53,0.12,-0.06,10.6,8.3,24.21,-0.55,0.24,-0.54,-9.76,15.72,-42.82,-0.98,-0.92,0.54,-2.2,3.59,15.21,2
0.38,0.27,-0.66,-2.09,13.67,-6.06,-0.85,0.09,-0.69,2.44,5.95,4.06,0.37,0.28,-0.06,14.89,-13.01,-40.94,2
0.83,1.17,0.84,1.32,4.88,-6.06,0.35,0.84,-0.69,-7.32,-21.88,160.8,0.52,-0.92,-1.41,-10.99,6.52,25.96,2
-0.67,0.12,-0.96,-21.14,19.53,100.87,0.2,-0.51,-0.99,22.46,24.02,-67.23,0.22,0.13,0.84,-94.0,47.54,230.06,2
-1.87,0.87,1.89,-101.7,52.24,303.99,-1.0,-2.01,-0.09,39.06,-4.3,-534.52,1.42,0.88,1.14,354.73,-96.51,-767.01,2
-5.92,3.12,2.49,14.02,19.53,31.04,-3.1,-3.81,1.71,-8.3,13.28,-8.64,2.02,0.28,2.19,-110.11,-33.03,-42.4,2
-8.47,2.67,3.69,19.88,15.14,14.44,-3.25,-4.11,1.26,-5.37,31.34,-85.79,0.37,0.73,2.49,12.93,-2.76,11.31,2
-10.87,2.67,1.29,23.3,-0.0,27.14,-4.0,-4.86,0.81,2.44,-9.18,15.29,2.92,3.13,3.84,-10.99,-0.32,52.81,2
-8.77,1.92,0.84,39.9,-5.37,15.42,-4.9,-4.86,-2.19,-44.43,66.01,-103.85,2.02,2.53,4.74,-21.25,-4.71,-67.79,2
-5.77,0.12,-0.06,13.04,41.5,279.09,-2.05,-3.66,0.81,18.56,20.6,-58.93,1.57,1.03,5.04,42.23,-10.08,-104.42,2
-4.42,-1.08,1.89,-210.1,99.61,-750.21,-1.0,-1.56,0.66,-72.26,296.48,-440.77,0.22,1.63,1.59,-426.52,338.55,1074.72,2
-1.87,0.12,4.29,1.32,18.06,40.81,-2.05,-0.36,2.31,4.4,0.58,20.17,0.37,2.53,-0.06,15.86,-9.59,-48.26,2
-0.97,-0.78,3.24,3.77,-10.26,-84.19,-4.3,-0.81,2.91,-18.55,-6.74,17.73,0.97,2.38,1.59,-18.81,17.26,71.37,2
-2.17,-0.48,2.49,-20.65,-6.35,7.61,-2.8,-1.11,1.56,-0.97,16.21,-71.63,-2.18,1.93,0.54,14.89,-0.8,-25.8,2
-3.67,-0.18,1.14,-16.74,-18.07,86.71,-2.5,-2.61,0.06,29.79,-68.27,372.71,-0.83,0.28,0.99,37.35,14.82,-29.22,2
-2.62,0.72,0.54,111.19,54.2,-652.55,-1.6,-1.11,-1.89,5.86,-38.97,223.78,-1.43,0.88,1.59,-360.11,145.68,723.22,2
-2.92,1.47,-0.36,10.11,2.44,58.88,-2.2,-1.26,-2.79,-95.7,171.97,-56.0,-1.13,-0.47,0.24,-24.18,-33.52,-11.64,2
-0.52,1.47,-0.66,-33.83,-21.97,96.96,-1.0,-1.26,-2.49,-21.48,-38.97,99.27,-1.13,-0.02,2.19,51.99,-27.66,29.86,2
-0.22,0.12,-1.71,-30.9,-3.91,-65.15,-0.85,-1.86,-1.14,-7.81,45.99,15.29,1.12,0.28,2.19,-16.85,28.0,104.57,2
-0.22,1.32,-0.96,-56.29,14.65,-256.06,-0.55,-2.31,-1.29,-17.58,92.87,-140.47,0.52,-0.17,1.89,-38.83,20.68,141.19,2
1.13,-0.03,-1.86,9.63,2.93,-300.5,0.8,0.39,-1.44,159.18,-139.07,212.07,1.42,0.13,1.14,-53.96,29.96,-23.36,2
0.08,0.57,-1.26,-2.58,0.97,-5.09,-0.55,-0.81,-1.74,20.51,313.08,-889.99,-0.38,-1.52,-0.81,-390.88,141.29,165.6,2
-0.67,0.12,0.24,9.14,6.83,-0.21,0.05,0.09,-2.19,-0.49,-14.56,7.96,0.82,-0.47,-0.81,15.86,-13.99,-46.8,2
0.83,0.72,-0.36,-22.11,-2.93,-3.62,1.4,0.24,-0.54,1.47,-3.33,-3.76,0.22,-0.92,0.09,-25.15,3.59,36.21,2
0.08,0.57,-1.26,3.28,-1.95,-11.92,0.05,0.84,0.81,9.77,-2.35,-40.38,-0.38,-0.02,-0.51,0.24,8.96,-7.25,2
0.83,1.17,-0.36,4.25,-6.84,13.95,0.05,-0.36,0.06,1.95,0.09,4.06,-0.98,-0.17,-0.66,-1.23,-1.29,-39.47,2
0.08,-0.63,-0.96,2.3,9.28,-8.99,-1.15,1.29,-0.39,-10.74,4.0,23.59,-0.23,0.43,-0.21,-18.81,3.1,14.24,2
0.08,-0.18,0.24,8.65,-5.86,-2.16,-0.55,-0.06,-1.29,3.91,6.93,-9.13,-0.08,-0.47,-0.06,-3.67,16.77,20.1,2
-0.52,2.22,0.09,5.23,-3.91,-5.58,0.65,-1.26,-0.54,-7.81,10.83,-11.57,0.22,0.43,-0.21,-2.2,8.96,-0.9,2
-0.22,0.12,0.69,3.28,2.93,10.05,-0.85,-0.66,0.36,-0.49,4.98,0.15,0.37,-0.02,0.69,15.86,0.17,-0.41,2
-0.07,-0.03,-0.36,-3.56,11.72,5.65,1.7,0.09,-0.39,0.98,-1.86,15.29,0.22,-0.17,0.09,-7.58,2.13,-1.39,2
-0.67,-0.63,-0.96,-5.02,-1.47,-8.51,0.05,0.84,0.81,0.0,1.07,1.13,-0.53,0.43,-0.96,-7.58,-6.18,23.03,2
0.08,-0.63,0.24,7.67,8.3,-2.65,-0.55,-0.51,-0.09,4.88,10.83,-3.76,-0.08,-0.02,-0.51,-6.11,-6.18,4.96,2
-1.72,-0.03,-0.66,11.58,2.44,-11.44,1.25,-0.66,0.06,12.21,-14.07,9.43,0.37,-0.47,-0.81,-0.74,5.54,8.38,2
0.83,1.47,-0.66,-13.32,-1.47,-0.21,-1.15,1.29,-0.39,0.49,1.07,-2.29,0.82,-0.77,0.69,-10.02,2.61,3.49,2
-1.27,-0.03,0.09,7.67,-0.98,-2.65,-0.25,0.69,-0.99,5.37,4.98,10.89,0.82,-0.77,0.24,-4.65,3.1,0.08,2
-0.67,-0.18,0.24,6.7,0.97,-8.02,0.2,-0.06,-0.09,-4.88,5.95,-8.15,0.52,0.13,0.54,-13.44,-1.29,19.61,2
0.83,1.17,0.84,9.14,-6.35,-2.65,-0.55,0.24,-0.54,-10.25,4.98,5.52,1.42,0.43,-0.66,-19.78,-9.59,4.47,2
0.83,1.17,0.09,12.07,-1.47,10.05,0.2,-0.81,-1.74,-8.3,0.58,-10.59,0.82,0.73,-0.51,14.89,-5.2,-19.46,2
0.98,0.12,-0.06,-7.95,-9.77,6.14,1.85,0.24,0.21,-13.18,-2.84,-4.24,-0.08,-0.47,-0.81,-4.65,-0.32,7.4,2
-0.07,0.72,1.29,12.07,-3.42,3.7,-0.55,-0.81,-0.54,-0.49,1.07,3.57,-0.38,0.28,1.44,2.19,10.91,-2.37,2
-0.67,-0.18,-0.96,19.39,-2.93,-15.34,0.35,-0.36,0.36,-10.25,-1.37,-3.27,0.22,0.88,0.54,9.51,-7.64,10.82,2
0.08,0.57,-1.71,3.28,1.46,3.7,0.35,0.84,0.81,17.09,7.42,1.13,0.82,0.28,-0.81,-6.11,-3.25,-1.39,2
-1.27,0.27,1.29,5.23,0.49,-1.18,0.95,-0.51,-0.99,7.33,-7.72,-6.2,0.52,-0.17,0.54,0.24,6.52,9.84,2
0.83,0.27,0.09,10.6,13.67,6.14,0.8,0.09,-0.39,0.0,-2.35,-7.17,-0.83,-0.77,-0.51,4.63,-3.25,-0.9,2
0.08,-0.63,1.14,1.81,3.9,-2.16,0.65,-0.06,-0.54,-3.42,-6.25,-3.27,1.12,0.28,0.69,2.19,4.08,8.38,2
-0.22,0.57,-0.51,-5.51,7.32,3.21,0.35,-0.36,-0.39,8.79,4.98,-13.03,-0.08,-0.47,-0.81,-5.62,-4.71,2.03,2
0.08,0.12,-0.51,-0.63,-12.7,-3.62,0.2,0.69,-0.99,0.49,4.49,-1.8,-0.38,1.03,0.24,-10.02,6.52,2.52,2
-0.07,0.27,0.54,0.35,-8.3,-154.01,0.05,0.09,0.81,-29.78,39.16,-24.75,0.37,0.73,-0.06,-75.94,15.31,136.79,2
-0.52,0.27,0.09,-26.02,46.39,94.52,-0.25,-0.06,-0.09,36.13,-57.04,80.72,0.37,-0.47,-0.06,46.62,-29.61,-152.76,2
0.08,1.17,0.84,78.47,11.23,-209.68,-1.45,0.69,0.66,-37.11,-286.53,1018.16,-0.23,0.88,0.54,-238.53,130.06,583.08,2
-0.07,-0.03,2.04,80.43,-37.6,-210.65,0.65,0.99,1.71,139.16,66.5,-332.86,-0.53,1.18,0.09,-361.09,54.86,481.52,2
1.58,-0.48,2.79,15.0,4.88,115.03,2.0,4.29,3.06,12.21,-15.04,-0.34,1.57,2.53,3.54,-1.72,-9.1,-70.24,2
4.58,-1.98,1.59,-24.55,9.76,118.45,8.75,8.94,4.86,-9.28,64.06,96.83,2.92,3.43,4.89,-44.69,92.95,303.3,2
3.53,-2.13,2.19,107.28,-86.92,-254.6,4.7,7.14,2.46,-35.64,89.94,138.33,2.17,3.43,8.19,-149.18,18.73,170.0,2
1.88,-3.03,4.29,51.13,29.3,361.12,2.0,3.54,6.51,23.93,-187.9,306.79,0.97,3.43,4.89,-295.66,-69.16,-323.17,2
2.03,-3.18,4.74,22.32,-13.19,-27.55,1.7,0.84,7.71,15.63,31.34,-168.79,2.32,5.08,3.54,-9.04,0.66,22.05,2
3.23,-1.23,3.69,16.46,14.16,16.4,1.85,1.74,5.16,-6.35,30.37,-109.22,3.37,3.43,2.34,45.16,-1.78,-50.22,2
1.13,-1.68,5.19,-10.39,-28.32,-22.67,3.05,0.99,5.16,22.95,148.53,-534.52,2.92,3.43,0.84,7.07,-30.59,114.82,2
3.08,-1.38,4.59,13.04,28.81,192.18,1.4,4.44,7.11,23.93,-18.46,64.12,2.32,3.13,2.64,-125.25,226.25,422.93,2
6.83,-3.33,7.44,-131.0,36.62,-103.72,0.2,6.69,6.66,39.55,72.36,38.73,5.62,1.63,3.84,-95.47,54.37,168.04,2
5.18,-1.08,2.64,-16.74,72.26,275.67,0.8,5.79,5.76,102.54,-37.02,-260.1,2.32,1.78,2.49,62.25,38.75,-173.75,2
3.83,-1.83,2.19,196.64,333.98,355.26,0.95,4.44,3.36,-460.94,-258.21,1018.16,2.17,3.13,1.89,510.0,-41.33,-437.91,2
1.58,0.72,0.84,-1.12,-1.95,-6.06,1.4,2.19,1.71,-3.42,12.79,-30.61,-0.08,1.03,0.69,14.4,-5.69,-28.24,2
0.83,0.27,0.09,6.7,4.39,14.44,-1.0,0.24,1.71,0.49,3.51,-6.2,0.37,1.03,0.24,30.51,-3.73,-29.22,2
-0.22,-0.18,0.69,0.84,9.28,0.77,-0.85,1.29,-0.39,-4.88,-1.37,1.62,-0.53,0.43,-0.96,-8.06,-0.8,-7.25,2
1.58,1.17,0.09,2.3,8.3,-19.25,0.8,-0.36,-0.69,4.4,6.44,11.87,0.52,-0.62,0.09,5.12,-4.22,4.96,2
0.38,-0.48,0.54,-0.14,3.42,-5.58,0.2,-0.51,0.66,1.47,-3.81,-15.47,-0.08,0.73,-0.06,-5.62,-2.27,19.61,2
-0.52,1.92,-0.66,12.07,-1.47,3.7,-0.55,0.24,-0.09,0.0,-6.25,0.15,0.37,0.28,-0.51,-5.13,5.54,-2.37,2
-0.07,-0.48,0.09,7.67,3.42,19.33,0.05,-0.36,-0.39,4.4,-0.88,-15.96,-0.83,1.03,-0.06,0.72,-5.2,1.05,2
-0.52,-0.03,0.54,-3.07,-3.91,-21.2,0.65,-0.06,-0.54,-20.02,-5.77,7.96,-0.53,-0.92,-0.21,-20.27,14.33,36.21,2
0.98,0.57,-0.06,-1.12,-5.86,4.68,0.2,0.69,0.81,-8.3,6.44,-9.61,2.02,1.78,-1.11,9.51,-5.2,-1.88,2
1.43,0.12,-0.06,7.18,7.32,-5.09,-0.4,-0.66,-1.14,-3.42,-2.35,29.45,0.52,0.13,0.09,-3.18,2.13,-0.41,2
1.88,0.57,-0.06,2.3,14.16,-18.27,0.05,-1.11,-0.69,5.37,4.0,-9.13,-2.03,1.03,-0.06,-9.04,-12.03,7.4,2
-0.07,-0.03,-0.66,2.79,11.23,-15.34,0.65,-0.51,-0.99,-0.49,-8.21,11.38,-0.08,-0.77,0.99,-14.41,-5.2,11.31,2
0.38,-0.48,0.54,15.0,-5.37,7.61,-0.55,-0.06,-0.99,-2.44,-7.72,3.57,0.37,0.73,-0.06,-0.25,8.47,8.38,2
0.53,0.57,-0.96,5.72,2.44,-7.53,-0.85,-0.66,-0.39,7.33,-0.88,3.08,-0.23,0.43,1.14,-0.25,13.84,12.77,2
-0.07,1.92,0.54,8.65,12.21,6.63,0.35,0.09,0.36,4.88,-5.77,-4.73,-0.83,-0.02,-1.11,-0.74,-9.59,-8.71,2
-0.22,0.57,1.14,-4.53,2.93,-2.16,0.2,0.24,-0.09,-5.86,3.51,6.5,0.37,0.28,0.24,-15.88,2.13,27.42,2
-0.52,1.47,0.84,1.32,-8.3,11.03,0.65,-0.06,0.21,2.93,3.02,-12.06,-0.08,-0.47,-0.51,12.44,0.66,-16.53,2
-0.22,-0.18,-0.51,17.93,2.44,-8.02,-1.45,-0.51,1.41,-2.44,4.0,7.96,0.82,-0.02,-0.06,-13.44,4.08,6.91,2
1.88,0.87,-0.06,-1.6,-1.47,-2.16,0.2,0.24,0.96,-4.39,-0.88,-15.96,1.42,0.88,-0.21,-11.97,-2.76,10.82,2
0.53,1.32,0.69,-6.0,-2.93,11.03,0.05,0.09,-1.14,5.37,-0.88,-4.24,0.22,0.13,0.54,5.61,8.96,-12.62,2
0.98,0.57,0.69,-4.05,11.23,-0.69,0.05,0.09,-0.69,9.77,1.07,-8.15,-0.83,-0.47,-0.51,-4.65,3.1,1.05,2
-1.27,0.27,-0.36,9.63,-1.47,-9.48,0.35,0.39,1.26,-4.88,-0.4,4.06,-0.08,0.73,0.24,2.68,17.75,11.31,2
0.08,0.12,0.24,11.58,6.35,-1.67,0.65,0.69,0.21,10.26,-9.18,6.5,-0.23,0.43,-0.66,-4.65,-10.08,-6.76,2
0.08,-1.38,0.24,8.16,-0.98,4.68,0.65,0.24,-0.99,1.47,1.56,-12.54,0.37,-0.02,0.69,-14.9,13.36,10.33,2
0.53,-0.18,0.69,-1.6,1.95,4.19,0.2,0.24,0.96,0.98,8.39,0.64,-0.98,0.88,0.54,-6.11,9.94,9.84,2
-0.52,0.72,0.09,4.25,2.44,14.44,0.2,0.24,-1.29,1.47,5.95,14.8,-0.38,-0.47,-0.06,12.44,-15.94,0.08,2
1.13,-0.48,0.84,4.25,6.83,-3.62,0.2,-1.26,0.66,-9.28,-4.3,-8.64,2.17,0.88,0.54,4.63,2.61,-1.39,2
-0.07,0.72,0.84,1.32,8.3,1.26,-0.55,-0.06,0.66,1.47,-7.23,-10.59,0.37,-0.02,-0.06,-10.02,1.15,17.17,2
0.38,0.27,0.09,-6.0,-3.91,1.26,-1.15,-1.41,-0.39,-6.35,-0.88,12.36,0.52,-0.17,-1.41,6.58,1.15,-17.5,2
0.98,0.12,1.14,0.84,0.97,2.72,-0.55,0.69,1.41,-7.81,-3.33,-3.27,-0.08,0.73,0.24,-9.53,-1.78,0.08,2
0.08,0.87,0.24,-5.02,2.44,-10.46,1.4,-0.06,0.66,-2.93,7.42,-21.33,-0.23,1.18,-0.21,6.58,-4.71,9.35,2
1.13,0.27,0.54,4.74,3.42,-4.11,-0.85,-0.36,-1.44,-4.39,-6.74,16.26,1.57,0.28,-0.51,0.72,-4.22,12.28,2
-0.67,0.12,-0.96,-0.63,14.16,-4.6,0.2,-0.06,0.66,-0.97,-3.33,-7.66,1.42,0.43,-0.96,-4.16,-1.29,-6.76,2
-0.22,0.87,0.69,2.3,-7.33,3.7,0.05,-1.11,0.36,9.28,6.93,9.92,-0.38,-0.77,0.24,-6.6,-7.15,8.38,2
-1.12,-0.63,1.14,4.25,-7.33,4.68,0.65,-0.51,-0.09,-1.95,3.02,-14.01,-0.53,-0.62,-0.21,-8.55,-0.32,6.91,2
-0.07,0.72,-0.66,22.32,1.95,7.12,-1.45,0.69,0.66,25.88,-40.43,133.94,0.22,0.43,0.54,25.14,-2.27,-27.76,2
0.08,0.57,-0.96,102.89,8.79,208.78,0.95,0.24,0.96,-45.41,3.51,213.53,1.42,-0.62,-1.41,24.16,2.61,37.19,2
1.13,0.72,0.84,217.15,-13.67,4.19,0.95,0.69,0.66,49.32,-98.54,229.64,1.42,-0.62,-0.21,400.14,-276.68,-871.99,2
0.98,-0.18,1.44,-11.86,5.86,65.71,2.9,3.09,1.56,-25.88,21.58,75.83,2.92,1.18,3.39,365.47,-84.79,-186.94,2
2.03,-0.48,0.84,-3.07,8.79,-45.62,5.45,3.99,1.71,2.93,46.48,-38.91,3.37,1.63,3.39,-22.22,7.5,24.0,2
2.63,0.12,0.24,13.04,-6.84,-113.0,7.7,7.29,3.81,-19.04,38.67,12.85,5.47,0.73,4.29,-11.48,3.1,40.12,2
2.48,-0.18,-0.51,78.47,24.9,12.98,7.55,6.24,1.41,-15.62,34.76,40.68,3.67,1.63,4.59,1.7,-8.62,-27.27,2
1.13,0.27,-1.11,0.84,-0.98,38.86,6.35,4.44,-0.99,13.19,18.16,2.1,1.57,1.78,1.74,21.23,-12.52,15.7,2
1.58,-0.03,0.09,69.68,-37.11,204.87,3.8,3.99,-0.09,33.2,78.22,-145.36,2.32,2.53,4.29,-77.89,4.57,101.64,2
0.53,-1.38,-0.51,282.57,59.08,989.97,4.1,0.84,1.26,-298.34,-319.24,1018.16,0.52,2.38,4.59,569.57,-55.49,-898.85,2
2.03,-3.18,2.04,8.65,-4.88,-29.99,3.2,-1.41,3.51,6.35,-1.37,2.1,1.72,2.38,2.64,-34.43,4.57,61.6,2
0.83,-1.98,2.79,17.93,-1.95,-37.8,2.45,-0.36,3.06,-6.35,-5.77,21.15,2.17,2.68,2.34,-20.27,-6.18,27.42,2
1.13,-0.48,1.29,-22.11,1.95,18.35,3.2,0.39,3.81,-8.3,5.46,18.71,2.77,2.53,1.74,-17.83,21.66,65.99,2
1.13,-0.48,0.54,-29.44,-10.26,-107.14,0.95,0.69,0.96,12.7,11.81,-146.82,2.17,0.88,0.09,-107.67,52.42,217.85,2
1.13,0.72,-0.66,-70.45,-14.65,-92.98,0.05,1.29,-0.39,50.29,-113.19,325.83,0.37,1.03,-0.81,-181.89,131.03,445.88,2
2.03,1.47,-1.11,-143.69,93.75,138.95,-0.4,0.39,-2.64,41.02,78.22,-59.42,-0.08,-0.47,0.24,-245.86,169.12,1074.72,2
0.53,0.57,-0.96,-18.21,4.39,26.65,-1.45,0.24,-3.99,-16.11,35.25,0.64,1.57,-0.02,2.94,-38.83,6.03,-3.34,2
-0.52,1.17,0.54,-26.02,8.79,-30.97,-3.4,-0.06,-6.69,-16.11,42.57,21.15,0.52,0.13,2.34,-5.62,-14.96,21.56,2
-2.32,2.52,-1.26,11.09,12.69,11.51,-6.1,-1.86,-5.34,-16.11,13.28,166.17,-0.98,-1.67,5.19,58.34,-21.31,-53.15,2
-2.77,1.77,-0.06,6.7,-9.28,-89.56,-4.6,-1.56,-5.49,-234.37,-8.21,-711.27,0.52,-0.92,4.59,-44.2,-6.18,190.51,2
-4.72,1.47,-0.66,-75.34,62.01,177.53,-5.2,-1.41,-3.39,-41.99,-25.3,-12.54,-0.38,-0.47,3.24,40.76,-3.73,18.63,2
-1.12,1.32,-1.26,-117.82,-68.36,-1179.89,-3.4,-2.31,-3.24,90.33,-101.96,411.28,-0.53,-0.92,3.39,-166.76,190.11,422.93,2
-2.32,1.32,-0.51,2.79,-9.77,16.4,-0.55,-0.81,-0.99,-12.21,3.51,-32.08,-0.08,-1.52,0.99,-7.09,-9.59,12.77,2
-0.97,-0.03,-0.66,-6.98,-1.95,24.7,-1.15,-0.66,-1.14,7.81,-3.33,20.66,-0.23,-0.17,0.09,23.67,-7.64,-36.54,2
0.08,-0.18,-0.96,18.41,-10.26,-17.3,-0.4,-0.36,-1.14,9.77,-7.23,-3.76,-0.98,-0.62,1.14,-25.15,27.52,52.81,2
-0.97,-0.48,0.09,2.79,-3.91,2.72,-1.0,0.99,0.21,2.44,6.44,-5.71,-0.23,-0.17,-0.66,13.91,-15.45,-34.59,2
-0.07,-0.03,-0.66,12.56,7.81,6.14,2.0,0.39,0.06,2.44,4.0,10.41,-0.08,-0.02,-0.06,-10.51,5.54,24.0,2
1.13,-1.23,-1.11,0.35,-2.93,1.75,-0.25,-0.06,0.21,-1.95,-0.88,-18.4,-0.98,0.43,-0.96,-0.74,-7.15,3.01,2
-0.97,0.72,-0.36,1.32,-0.49,3.7,0.2,-0.06,0.21,1.47,-8.7,25.05,0.22,0.43,0.09,-10.02,-0.32,9.35,2
-0.22,-0.18,-0.51,-5.51,-0.98,-9.48,0.05,0.09,0.36,4.4,4.0,-35.01,-0.08,-0.02,-0.06,-13.92,-1.78,20.1,2
0.53,0.87,-0.51,4.25,-1.47,24.21,-0.25,-0.06,0.96,0.49,3.51,17.73,-0.38,0.28,0.69,5.12,-1.29,-20.92,2
-0.67,-0.18,0.69,10.6,-3.42,-7.04,0.05,0.09,0.06,-8.3,7.91,-5.71,0.37,-0.77,-0.06,-20.76,-0.8,40.6,2
-1.12,-0.18,0.69,8.65,0.97,11.03,0.2,-0.06,-0.54,5.37,10.83,-20.84,-0.98,0.13,0.09,20.26,7.99,-39.96,2
0.38,-0.03,-0.36,-8.44,-12.21,-0.21,-0.4,-0.36,-1.14,2.93,3.51,23.1,0.52,0.88,-0.21,-14.9,16.29,30.35,2
0.38,0.72,-0.66,7.18,-0.0,-5.58,-0.4,-0.36,0.36,-5.86,6.44,-16.94,0.82,-0.77,-0.06,-13.92,-0.32,16.68,2
0.08,0.57,0.24,6.7,10.74,25.67,0.05,0.09,0.36,0.0,0.09,12.85,1.42,-0.17,0.09,14.89,10.43,10.33,2
0.53,-0.18,1.14,-8.44,4.39,-3.62,0.2,0.24,-0.54,6.35,-3.33,-12.06,0.97,0.43,0.54,-7.09,7.99,18.14,2
-1.12,-0.18,0.24,11.09,-2.93,3.7,-1.15,-1.11,0.36,-4.88,-2.35,16.26,-0.98,-0.17,-0.66,9.03,-6.18,-23.85,2
-0.07,1.17,-0.36,-5.51,-9.28,-7.53,0.65,-0.81,0.21,-7.32,6.93,-2.78,-0.38,0.73,-1.11,-18.81,-2.27,37.67,2
0.83,1.47,-0.36,8.16,6.83,8.58,-1.15,-0.36,0.36,4.4,-0.4,-14.99,0.37,-0.02,-1.11,4.14,-15.94,-44.85,2
-1.57,0.87,-0.96,-1.12,-7.33,4.19,0.35,0.39,0.06,-2.93,-7.72,28.47,-0.23,0.88,-0.66,2.19,-5.2,3.49,2
-0.67,0.57,0.69,-0.63,7.32,-18.27,0.35,0.09,0.06,14.16,-4.3,-18.4,-0.53,-0.17,0.54,-15.39,22.63,33.77,2
-0.67,0.87,-1.71,-0.14,-1.47,11.03,0.35,-1.11,-0.69,-2.44,-8.21,-7.17,0.52,-0.17,0.09,11.96,-17.41,-33.62,2
-0.52,0.27,-0.36,-0.14,8.3,1.75,0.8,0.09,0.36,-6.35,-7.23,6.5,0.37,0.73,-0.06,-10.51,-0.32,46.95,2
-0.22,1.77,1.44,6.7,-4.88,10.05,0.05,0.09,-0.39,3.42,-0.88,-25.24,0.37,-0.02,-0.81,0.24,-1.78,-25.31,2
-0.52,0.27,0.09,-7.95,0.49,16.4,-0.4,-0.36,-1.14,5.37,6.44,17.24,0.52,1.18,0.84,-2.2,-11.06,-7.25,2
-0.22,-0.18,1.14,-3.07,-8.3,-11.44,-0.25,-0.81,-0.09,-13.18,9.37,-20.36,-2.03,-0.02,0.99,-22.71,9.45,25.47,2
-0.07,-0.48,0.09,1.32,11.72,12.98,-0.55,-0.51,-0.09,8.79,-0.88,-1.31,-0.53,0.13,-0.66,21.72,-7.15,-33.13,2
-0.07,0.27,-0.36,7.18,8.79,-19.74,0.35,-1.11,-0.39,4.88,0.09,4.55,0.52,1.18,0.54,-9.53,20.68,33.77,2
0.38,-0.48,0.84,7.18,1.46,13.95,-0.25,-0.06,-0.54,15.14,10.35,-9.13,0.37,0.73,-0.06,27.09,-5.2,-37.03,2
-0.07,1.92,-1.86,31.11,12.69,218.54,-0.55,0.24,-1.74,-74.22,40.62,336.58,-0.23,0.43,0.09,152.58,-63.79,-252.85,2
-0.22,0.57,-4.86,53.57,83.98,-1493.86,0.65,-0.51,-2.04,41.51,-52.64,-87.74,0.22,-1.67,0.09,-443.12,153.0,793.04,2
1.58,-0.78,-8.91,11.58,8.79,-8.02,2.45,0.84,-2.64,20.51,-17.49,100.25,0.52,-0.62,0.09,54.92,-13.5,-59.01,2
7.43,1.47,-12.06,59.92,-27.83,-215.05,2.0,1.59,-3.39,16.6,-0.88,165.19,2.32,-0.77,0.99,-83.26,47.54,57.69,2
10.43,1.92,-10.11,78.96,-62.99,52.04,3.2,2.04,-0.69,10.26,-50.2,-58.93,0.82,0.73,2.94,-40.78,-8.62,185.13,2
12.23,4.02,-4.86,-148.58,-2.93,167.76,5.45,1.44,1.71,6.84,-147.86,416.66,3.07,1.03,1.74,123.77,-27.17,-248.95,2
5.63,3.27,3.09,380.23,392.09,-3009.97,1.7,2.04,1.26,-968.75,39.64,169.58,2.17,-0.62,0.54,554.92,-696.6,-1618.58,2
2.93,2.22,4.74,-1.12,-7.81,-74.42,0.2,1.29,3.51,-9.28,-1.86,39.21,2.02,2.08,0.99,-69.1,45.09,177.32,2
-0.67,0.12,4.29,0.35,-13.67,-241.42,-1.45,0.99,2.46,-4.39,14.74,-97.02,0.22,1.63,1.14,-121.83,52.91,254.96,2
-0.67,-0.18,3.84,-42.62,-27.35,-10.95,0.05,0.09,2.01,3.42,-46.29,184.23,0.22,2.68,0.54,-62.75,79.27,224.69,2
3.53,-1.83,5.04,-87.54,-99.61,382.61,-2.2,3.24,4.11,158.2,-80.47,-145.36,0.37,2.08,0.99,-310.8,114.92,586.99,2
4.13,-5.13,7.89,-28.95,42.97,125.28,-2.2,5.49,5.16,27.83,-32.62,50.44,0.82,2.83,2.19,18.79,-18.38,8.38,2
2.93,-5.43,7.59,-37.74,37.11,177.53,-3.4,5.94,8.61,-60.06,126.56,-20.84,0.22,3.43,3.39,55.41,37.28,90.9,2
1.13,-3.48,6.84,22.81,57.13,251.26,-3.7,3.54,9.96,-32.22,71.38,-116.06,0.97,2.68,4.14,-147.71,72.93,-171.8,2
-0.67,-2.13,3.39,-158.34,373.53,458.29,-1.0,1.74,7.56,470.22,-597.08,1018.16,0.82,3.28,4.74,-47.61,134.94,453.2,2
-2.32,0.12,2.19,5.72,7.32,-21.69,-2.05,-1.41,2.76,5.37,-2.84,-4.73,0.22,1.63,1.14,4.63,-0.8,0.08,2
-0.67,0.12,0.24,7.18,-0.98,9.56,0.05,-0.66,0.36,-2.44,-9.18,3.57,0.22,0.88,1.14,6.1,-3.25,4.47,2
-0.07,0.27,0.09,22.81,45.9,100.87,-0.85,-0.36,0.36,-20.51,7.91,7.48,-0.38,-0.02,-0.51,-6.6,1.64,1.05,2
0.53,0.87,0.24,1.81,4.88,2.72,-0.4,-0.36,-1.14,-9.76,3.02,-9.13,-0.08,0.28,-0.51,-4.65,5.54,-1.88,2
1.13,-0.48,0.54,5.72,-3.91,-10.95,0.05,-0.36,0.36,-0.49,4.49,10.89,0.37,-0.77,-0.81,-18.32,2.13,10.33,2
0.08,-1.08,-0.06,-7.46,-3.42,-7.53,-0.55,0.24,0.21,-8.79,-3.81,-13.03,-0.53,-1.67,-0.21,-12.46,2.13,-4.81,2
-0.52,-0.48,0.09,10.6,-6.35,9.07,-0.4,0.39,-0.69,6.84,-6.25,23.1,0.82,0.28,-0.81,-5.62,0.17,-6.76,2
0.38,0.27,0.09,-5.02,9.76,-12.41,0.05,0.39,-0.39,-10.74,-6.25,2.59,0.82,1.03,-0.81,-15.39,-5.2,12.28,2
0.83,0.72,-0.66,7.18,-1.47,-3.62,0.2,1.44,-0.99,0.98,6.44,-5.22,0.22,-0.17,-0.21,-5.62,16.77,5.94,2
0.08,0.12,-0.96,3.28,2.44,14.44,0.2,0.69,-0.99,-5.37,-6.25,19.68,-0.08,0.28,0.69,-0.74,-6.66,-15.55,2
-0.07,-0.78,0.84,11.09,5.37,5.17,1.4,-0.06,0.66,-3.9,6.93,-9.13,-0.08,-0.02,0.69,2.19,7.5,1.54,2
-0.67,-0.18,-0.51,2.3,-4.88,2.72,0.65,-0.51,-0.09,4.88,2.53,-11.57,0.52,-1.37,0.09,2.68,-5.2,-11.64,2
-1.12,0.57,0.24,2.79,-0.98,-13.88,-0.85,0.84,-1.14,0.49,4.0,4.06,-0.83,0.28,0.99,-0.25,9.45,22.54,2
0.98,0.12,-0.06,12.07,-9.28,4.19,-0.4,-0.36,-0.39,4.4,4.98,-6.68,-0.23,-0.17,1.59,-0.74,2.61,17.65,2
0.08,-0.18,0.09,16.46,-3.91,11.03,0.65,0.69,0.96,7.81,-5.28,-4.24,-2.18,0.43,-0.96,-15.88,11.4,11.79,2
-0.67,-1.08,-0.06,12.07,9.76,0.28,0.2,1.44,0.21,11.72,9.86,-26.7,0.82,-0.02,0.24,-5.62,-5.2,-12.62,2
-0.97,0.72,0.09,-10.39,-14.16,-2.65,1.4,0.69,-0.99,5.37,0.58,9.92,-0.98,0.88,0.09,-17.34,7.5,20.58,2
0.53,-0.18,-0.51,-9.42,1.95,13.95,0.05,0.09,0.36,1.95,9.86,9.43,0.22,1.18,1.14,10.0,-16.43,-40.94,2
0.38,-0.03,0.09,0.84,7.32,-31.46,-1.6,1.29,0.06,-15.62,0.09,6.5,-0.23,-0.62,-0.21,-27.6,13.84,61.6,2
0.38,-0.03,-0.36,-3.07,6.83,13.95,-0.85,-0.66,0.06,2.93,3.02,0.64,-1.58,-0.02,-1.11,11.96,-13.99,-40.94,2
-0.52,1.47,-0.66,-2.09,1.95,-1.67,0.2,-0.06,-0.99,-3.9,9.37,6.01,0.97,-0.92,0.54,0.72,2.13,9.84,2
-0.22,0.87,0.69,14.51,-10.26,4.19,-0.4,0.09,-0.39,5.37,-8.21,-11.57,0.37,-0.02,-0.81,-2.69,3.1,-11.15,2
-0.07,0.27,-0.66,1.81,5.37,-4.11,0.2,-0.81,0.21,4.4,-7.23,16.26,-0.08,-0.47,0.24,-9.04,-1.78,28.4,2
-0.07,-0.03,0.09,3.28,-2.93,0.28,-1.0,-0.81,-0.54,-9.28,8.39,-10.59,0.22,0.43,1.14,-1.23,-1.29,-16.04,2
0.08,-0.18,-0.51,3.28,5.37,-7.04,0.35,-0.66,-0.39,5.86,4.98,1.62,-0.98,-0.17,-0.96,-10.99,8.96,17.17,2
-0.97,-0.48,-0.66,15.49,-11.23,14.93,0.65,0.24,0.21,7.33,1.07,-0.83,1.72,-0.17,-0.96,4.63,0.17,-13.6,2
-0.22,0.12,-0.96,-1.6,-1.47,3.21,-1.75,-0.06,0.66,-13.67,-4.3,-1.8,0.22,0.13,0.54,-4.65,2.61,12.77,2
-0.52,0.27,-0.36,10.6,4.39,-1.18,0.95,-1.26,-0.54,-4.88,-7.72,6.01,-0.08,-0.47,0.99,-11.48,2.61,-11.15,2
-0.07,-0.48,-0.36,-0.63,-8.3,5.17,-0.25,-0.06,0.21,4.88,5.46,-9.13,0.37,0.28,-0.81,-25.64,-1.29,19.12,2
-0.52,-0.03,0.09,-6.0,6.35,11.03,-0.55,0.99,0.21,-1.46,0.58,7.48,1.72,0.13,0.09,-0.25,8.47,-11.15,2
0.38,0.27,-0.36,10.6,-4.4,-4.11,0.2,-0.51,-0.99,-2.93,-10.65,-3.27,-0.38,0.28,0.69,-6.6,-7.15,4.96,2
-0.22,0.12,-0.96,13.04,12.21,9.56,0.35,-0.36,0.06,0.49,4.0,-6.68,0.52,0.88,-0.21,-10.02,-5.69,22.54,2
-1.57,-0.18,-0.51,-0.14,-3.91,3.7,-0.25,-0.06,-0.99,1.95,5.46,-6.68,0.37,-0.02,1.44,3.65,-7.15,-20.92,2
-0.22,0.87,-0.06,15.97,-0.49,-3.14,0.65,-0.81,1.41,-2.93,-6.74,10.41,2.02,-0.02,-0.51,-14.9,6.52,21.56,2
-0.22,0.57,0.24,-9.42,5.37,-1.18,-0.4,0.09,-0.39,0.49,-3.33,-6.68,1.57,-0.47,0.24,-6.6,-2.27,7.89,2
0.98,-0.63,-0.96,8.65,13.18,27.14,-0.4,0.09,0.36,12.7,-6.74,-17.43,-0.98,0.13,0.84,6.58,-18.87,-13.11,2
-0.67,1.77,1.14,7.67,-0.0,-4.6,0.2,0.99,-0.99,-11.72,13.76,-15.96,1.12,0.28,0.24,-18.32,12.87,55.25,2
-0.22,0.57,-0.06,1.81,-11.23,-20.22,-0.25,0.24,0.21,-14.65,-3.33,-15.47,0.82,0.28,-0.51,-21.74,22.63,62.58,2
-0.07,1.47,1.29,-2.09,1.46,14.93,0.05,0.09,-1.89,-22.46,30.37,-129.73,-0.83,0.73,-0.06,70.06,-25.71,-102.95,2
0.83,1.17,-0.66,-27.97,-47.85,-581.26,-3.25,-1.11,-2.64,-2.93,23.04,53.86,-0.38,-0.02,0.69,-197.52,110.04,559.65,2
-1.57,1.32,-0.51,59.43,-49.81,21.28,-5.2,0.09,-3.39,165.53,-100.0,241.36,-0.38,-2.27,3.24,-2.2,80.25,76.74,2
-1.12,2.52,0.69,1.81,7.32,2.72,-8.95,0.84,-7.59,10.74,3.51,20.17,-2.33,-3.02,2.49,21.72,-14.48,-27.27,2
-0.07,1.92,0.84,-7.95,30.76,-49.52,-11.5,4.44,-9.69,11.23,12.3,-4.73,0.37,-3.77,4.74,15.37,-15.94,-13.11,2
0.38,1.47,2.49,-17.72,8.79,-49.52,-11.35,6.84,-11.79,-22.46,35.74,-46.24,-0.53,-4.22,5.64,-34.43,2.61,44.02,2
-0.22,0.87,2.64,-31.88,17.58,93.06,-6.85,8.04,-9.54,7.33,-24.81,-18.4,-1.58,-3.77,6.99,-43.22,1.15,-68.77,2
-0.22,0.12,2.19,-12.35,25.39,241.01,-2.8,6.09,-9.09,13.67,9.37,116.36,-2.03,-2.57,7.29,-19.78,0.17,3.98,2
-0.22,-0.18,1.44,-95.35,-151.37,-932.33,0.2,2.49,-3.54,74.22,301.85,-748.87,-0.38,-3.02,4.74,-33.45,8.96,65.51,2
-0.52,-0.03,1.59,-2.58,9.28,-29.99,0.05,0.39,-0.39,-2.44,12.3,-26.22,-1.13,0.28,1.74,456.29,-199.05,-1675.71,2
-1.27,-3.18,1.29,6.21,12.21,-2.16,-1.0,-2.76,2.16,-9.28,8.88,-23.29,-0.83,2.53,2.94,38.32,-20.34,-55.59,2
-0.67,-1.38,0.69,-4.05,0.49,38.86,-1.6,-2.16,1.56,18.07,-9.18,47.03,-0.08,1.48,2.94,-4.16,13.36,-9.69,2
-0.97,0.27,0.09,8.65,-10.26,-144.25,-0.4,-1.11,2.01,2.93,-14.56,90.0,-1.58,1.48,1.74,-121.83,58.28,224.2,2
-1.27,-0.48,1.29,69.2,9.76,223.92,-0.85,-1.41,0.81,18.56,-40.43,363.92,-0.83,1.48,1.44,-33.45,26.54,83.57,2
-1.27,0.72,0.84,15.97,41.01,12.98,-2.65,-1.26,0.96,-153.81,81.15,519.19,-1.13,1.03,1.44,291.25,-89.18,-199.63,2
-1.72,0.27,0.09,-16.74,10.25,15.42,-1.6,0.84,-1.89,-5.37,0.09,24.08,-0.83,0.28,1.44,47.11,-0.8,-17.01,2
-0.52,-0.03,1.29,4.74,-21.49,106.73,-2.2,1.44,-1.74,12.7,10.83,9.43,0.22,1.18,3.84,38.32,8.47,13.75,2
0.98,1.32,0.69,19.39,4.88,-14.37,-0.85,0.39,0.36,15.14,25.48,98.78,0.82,1.03,3.54,32.95,7.99,129.47,2
-0.07,1.17,1.29,28.67,-17.09,-281.94,0.2,1.44,0.66,-23.44,100.68,-206.88,2.02,-0.47,3.99,73.48,4.57,-8.22,2
0.98,0.57,-0.06,150.74,-6.35,-145.71,0.2,-0.06,1.41,31.25,-27.74,88.04,0.52,1.93,1.89,21.72,-45.24,53.79,2
-0.22,0.87,0.69,-235.98,-31.74,-984.09,0.65,0.99,0.66,1444.83,-1772.37,1018.16,0.97,-1.67,-0.66,889.4,-409.5,-2212.81,2
-0.07,0.27,-1.11,7.18,2.44,7.61,1.25,0.09,0.06,6.35,-2.35,26.52,-0.23,0.43,0.09,16.35,-0.8,-18.97,2
0.98,0.12,-0.06,4.25,-9.77,-15.83,2.0,0.84,-1.14,-1.46,-5.77,-3.27,0.22,-0.17,-0.21,-25.15,25.56,60.62,2
1.13,1.17,0.54,8.16,-8.79,10.54,0.35,-0.66,0.36,-12.21,9.37,-30.61,-0.23,0.88,-1.41,10.49,-13.99,-35.08,2
1.13,0.27,-0.36,0.35,-0.98,23.72,-0.25,1.74,-1.74,12.21,-0.88,41.17,0.37,-0.47,-0.81,4.63,8.96,4.96,2
0.98,-1.08,0.24,-1.6,7.81,-8.02,0.2,-0.06,-0.54,-8.3,7.42,-25.24,-0.23,-0.62,-0.96,0.72,-6.66,22.05,2
-0.67,-0.18,-0.51,9.63,-6.84,4.68,-1.0,0.24,0.96,-16.11,-26.76,101.71,0.37,0.28,0.24,20.74,-11.55,-11.64,2
-1.12,-0.18,-0.06,13.53,-1.95,2.24,0.8,-0.66,0.06,-1.46,10.35,-12.54,0.52,-0.17,0.84,-19.78,5.54,17.17,2
0.38,-0.03,0.09,6.21,-7.33,6.14,0.35,0.39,-1.44,2.44,0.58,3.57,-0.23,-0.92,0.09,-3.18,4.08,1.05,2
0.98,0.12,0.24,2.79,9.28,-29.5,0.2,-0.51,-0.39,-1.95,4.49,-16.45,-0.38,0.28,0.69,-9.53,4.08,14.24,2
0.08,-0.18,1.44,-7.95,-6.35,13.95,0.35,0.84,0.06,-18.55,4.49,9.92,1.42,-1.67,-0.66,19.28,-6.66,-47.78,2
0.53,0.87,0.24,-2.58,-0.49,-2.65,0.8,-0.36,-0.69,9.77,3.51,-9.13,1.12,-0.77,0.24,-1.23,8.47,34.74,2
0.38,0.72,0.09,11.09,-2.93,5.65,1.25,0.09,0.36,-8.3,4.49,-9.13,0.22,0.43,-1.41,0.24,-1.78,-23.85,2
-0.07,-0.78,-0.36,4.25,-3.42,-0.69,-0.4,0.84,-0.39,7.81,3.02,-10.1,0.22,-0.92,0.54,-18.32,-0.8,24.49,2
0.08,0.57,0.69,7.18,-6.35,12.98,-0.4,-0.36,-2.19,-2.93,1.07,-18.89,-0.08,-0.02,-0.06,8.05,-12.52,-36.06,2
-0.97,0.27,0.09,-2.09,-0.49,8.58,0.2,-1.26,-0.09,-7.32,-6.25,21.64,0.37,-0.47,0.24,-1.23,1.15,13.26,2
-0.67,-0.63,0.24,-4.53,2.44,-11.44,0.8,-0.36,-0.69,-1.95,6.93,-14.5,-1.13,-1.52,-1.11,5.61,12.38,8.87,2
-0.52,-0.48,0.09,1.32,0.49,6.14,0.2,0.99,-0.09,11.23,-6.74,13.33,-1.13,0.28,0.24,2.68,0.66,0.56,2
0.08,0.57,-0.51,-1.6,3.9,-1.67,-0.55,-0.51,-0.54,15.14,7.42,-14.5,-0.08,-0.02,-0.06,-6.11,3.59,-3.83,2
-0.97,0.72,0.54,3.28,-11.72,16.4,-0.25,-0.51,-0.54,-13.18,-0.88,2.59,0.22,-0.17,-1.71,4.63,7.99,-6.76,2
-0.97,0.27,0.54,2.3,6.83,-11.92,0.05,0.39,-1.14,3.42,4.49,-9.13,1.42,-0.62,0.09,7.07,11.89,-2.85,2
-0.52,0.27,0.54,10.11,2.44,4.19,1.7,-1.11,-0.39,-15.14,-7.72,32.38,0.52,0.13,-0.66,-14.41,-1.78,-4.32,2
0.08,0.57,-0.51,-1.12,-0.0,2.72,-0.85,1.29,0.81,-1.46,0.58,-16.94,-0.23,1.18,0.09,4.14,-23.26,-0.41,2
0.83,-0.03,-0.66,15.49,-2.44,-0.21,1.25,0.84,-1.14,2.44,-16.51,10.89,-0.38,-0.02,-0.81,7.07,-0.32,10.82,2
1.58,0.72,-0.66,6.21,-0.98,-4.6,-0.25,-0.06,-0.54,-6.35,9.37,-17.92,-1.43,0.88,-0.21,-0.74,-0.8,20.58,2
1.43,0.12,0.69,14.02,-4.88,20.79,1.4,-0.81,-0.54,0.98,0.09,5.03,0.22,-0.17,1.14,6.58,-9.59,-18.48,2
-0.67,-0.18,0.24,-1.6,-11.23,9.07,0.05,-1.41,-0.39,6.35,4.49,8.94,0.22,0.43,1.14,-9.53,-7.15,7.4,2
-0.52,-0.48,0.54,-10.88,-1.47,-26.57,-0.4,0.09,0.06,-7.32,8.88,-37.45,-0.08,0.28,-0.81,28.56,-8.62,-48.26,2
-0.07,-1.68,-0.66,26.23,-2.93,24.7,-2.05,-1.11,-0.39,-28.32,24.02,-67.23,-1.13,1.03,0.69,116.94,-56.96,-265.06,2
-0.07,0.72,-0.36,-18.69,-14.65,-5.58,-0.55,-0.51,0.21,-78.12,81.15,-282.08,0.22,-0.17,0.09,40.76,-31.08,-134.2,2
-0.07,-1.23,1.29,-274.07,-61.53,692.18,0.05,-1.41,0.81,128.91,-118.56,289.7,-0.23,0.43,2.64,11.47,-15.45,-38.01,2
-1.12,-2.13,1.44,145.86,116.7,19.81,-3.85,-5.76,3.66,-314.45,-213.29,1018.16,-2.48,1.18,3.09,529.05,-368.48,-765.55,2
-2.92,-3.18,2.04,-24.55,-0.49,-126.18,-4.0,-7.11,8.76,22.95,-35.06,132.96,-0.38,7.18,6.99,-23.69,2.13,29.86,2
-0.97,-3.48,3.24,20.37,52.73,249.31,0.8,-8.61,16.11,1.95,25.48,39.21,2.02,10.03,10.29,-49.08,-4.71,45.97,2
-0.67,-4.98,5.79,-21.62,35.64,-36.83,2.9,-4.41,14.16,63.97,4.49,-312.84,2.92,9.13,9.99,10.49,37.77,149.0,2
-0.97,-3.18,5.64,161.97,-38.09,989.97,2.3,-2.31,10.86,61.04,-214.75,1018.16,2.77,7.18,6.99,842.52,-254.22,-1804.12,2
2.03,-3.93,3.69,-13.32,-13.19,-177.94,1.4,-3.51,8.61,-13.18,1.07,-11.08,2.47,5.23,5.19,-169.2,81.72,346.27,2
-1.12,-3.03,1.89,-63.62,-84.47,-254.6,1.7,-1.11,7.71,64.94,-120.51,396.15,2.17,4.48,3.39,-178.96,81.23,272.05,2
0.83,-3.18,2.49,-6.98,-1.95,-517.78,-2.05,-3.66,3.81,156.74,-160.55,277.01,0.97,3.73,5.19,-480.23,195.97,1074.72,2
0.83,-2.43,1.59,-45.06,41.5,264.93,-0.55,-6.21,5.91,-36.62,76.26,38.24,0.82,5.83,6.99,99.85,-27.66,-110.76,2
0.83,-1.68,2.04,-70.94,-25.88,-168.17,1.7,-6.66,9.66,136.23,90.91,-685.88,2.02,7.18,8.79,-88.14,16.29,154.86,2
-0.52,0.72,1.29,173.69,-49.81,-1161.34,0.2,-1.26,5.91,-254.88,172.94,-530.61,2.77,4.78,7.29,-18.81,30.45,-32.15,2
-0.52,0.27,0.09,8.16,6.35,3.21,-0.55,0.24,0.96,2.44,10.83,9.43,1.12,0.73,1.44,-14.9,9.94,23.51,2
1.43,0.12,-0.06,-6.49,-1.95,0.28,0.35,0.84,1.56,-9.76,2.53,-4.73,1.72,0.13,-0.66,17.81,4.57,5.94,2
0.98,0.12,-0.51,17.93,3.9,2.72,0.8,-0.36,0.06,5.86,-4.79,48.49,-0.83,-0.47,0.24,5.12,-6.18,-12.62,2
0.83,-0.03,-0.66,-10.39,-2.93,-1.67,0.95,0.69,-0.09,-1.46,11.32,-5.22,0.52,0.13,0.54,-26.62,19.22,33.77,2
0.98,0.57,0.24,-3.07,-4.4,-9.97,0.35,0.09,0.06,-5.37,5.46,-4.73,1.42,1.18,0.84,8.54,-5.69,-7.74,2
-0.07,-0.03,-1.11,8.65,-8.79,-0.21,-0.4,-1.11,1.26,-11.23,-4.3,5.52,0.22,-0.17,-1.41,-3.67,0.17,0.08,2
0.53,0.57,-0.51,-9.42,11.23,8.58,0.05,1.29,-0.39,1.95,5.95,-3.27,-0.23,0.88,-0.96,5.61,4.08,-4.81,2
-0.22,0.57,-0.06,7.18,-4.4,-10.95,-0.4,0.39,-0.39,-6.83,-3.81,0.15,-0.38,1.03,-0.81,-2.2,-4.22,4.96,2
0.38,-0.03,0.09,-8.93,-15.63,19.81,-0.4,-0.36,0.06,11.72,-0.88,-8.64,-0.08,-1.07,0.24,-3.18,-0.32,10.82,2
0.38,0.27,-0.36,8.65,8.3,3.21,-0.4,0.39,0.06,3.42,2.05,5.52,1.12,0.28,0.24,1.7,1.15,9.84,2
-0.22,0.87,-1.71,-3.56,-9.28,5.17,-0.25,0.24,-0.09,-0.97,4.98,-6.68,-0.23,0.43,-0.66,6.58,6.52,4.47,2
-0.22,0.87,0.69,7.18,2.44,2.72,0.35,0.39,-0.39,-6.35,13.76,6.5,0.52,-0.62,-0.96,0.24,-3.73,-19.94,2
-1.27,-0.78,0.09,8.16,-4.88,-13.39,-0.25,1.44,-0.99,-6.83,-4.3,2.1,0.37,0.73,-1.11,1.21,-3.25,20.58,2
0.08,-0.18,-0.51,-4.05,5.86,-2.65,0.35,0.84,0.36,4.88,3.02,3.08,0.97,-0.17,-0.21,-3.67,-10.57,-5.29,2
0.38,-0.48,-1.11,-1.12,6.35,-2.65,-0.4,-0.36,0.36,-9.76,1.56,14.31,0.22,0.88,-0.66,1.7,1.15,9.35,2
0.83,-0.03,-0.66,-1.12,-11.23,-3.62,-1.0,0.24,0.21,-11.23,2.53,6.99,2.02,-0.02,-0.81,-1.72,2.13,0.08,2
-0.52,-0.03,-0.36,-1.12,-5.86,19.33,-0.25,0.69,-0.99,0.98,-2.84,-13.52,-0.08,-0.47,1.44,-11.97,3.59,4.47,2
-0.07,-0.03,-0.66,24.27,4.88,-3.62,-1.15,0.39,-0.69,-11.72,8.39,13.33,0.82,-0.02,-0.06,29.53,-10.57,-28.24,2
-0.07,-0.03,0.54,-1.6,15.62,8.58,-0.55,0.69,-0.54,9.28,-1.37,3.08,0.37,-0.47,0.69,-23.69,12.38,13.26,2
0.38,-0.48,-1.11,-1.6,2.44,-5.09,-0.4,0.09,0.36,2.44,3.51,-9.61,-0.38,0.28,0.24,-5.13,-5.69,-4.81,2
1.13,0.72,0.09,3.77,7.81,16.88,0.2,0.69,0.96,0.49,-1.86,6.01,0.37,-0.47,0.24,12.93,-15.94,-5.29,2
0.38,-0.03,0.09,5.23,-0.0,3.21,0.8,0.09,-0.39,4.88,4.98,-13.52,0.52,0.13,-0.21,-5.62,3.59,16.68,2
-1.12,0.12,0.69,9.63,-2.93,-4.11,0.65,0.69,-0.99,-1.95,4.0,7.48,-0.38,0.73,-0.51,21.72,6.52,-7.25,2
0.53,0.12,-0.51,9.63,6.83,9.07,-0.85,-0.66,0.36,4.88,-15.04,14.31,0.22,0.13,0.09,6.1,4.57,12.28,2
0.38,0.72,-0.36,-1.6,2.93,0.77,-0.4,0.39,-1.14,0.49,9.86,-12.54,0.82,0.28,-0.51,-0.25,3.1,-1.88,2
-0.07,-0.78,0.54,15.0,1.46,1.75,-1.0,0.99,-0.09,1.47,-0.88,-3.27,-1.58,-0.02,-0.81,-20.27,14.33,6.42,2
-0.67,-0.18,-0.06,-5.02,4.88,9.56,1.25,0.09,1.56,-0.49,-1.37,-8.15,-0.23,0.13,0.54,-5.13,10.43,17.65,2
0.53,0.12,2.19,18.9,5.86,19.33,-1.0,-0.81,-0.99,8.3,-5.28,-4.73,0.97,0.13,-0.21,8.54,3.1,-9.69,2
-0.67,1.32,0.69,14.51,-6.35,7.61,0.05,0.84,0.06,0.49,-4.3,-10.59,0.37,-0.77,1.44,-5.13,5.06,12.77,2
-0.07,0.27,0.09,0.84,3.42,5.65,-1.45,0.99,-0.99,-10.25,2.05,-0.83,0.82,0.28,0.99,5.61,3.59,-0.41,2
1.58,-1.23,-0.36,5.72,-4.88,-10.46,0.8,-1.41,-0.69,6.35,8.88,3.57,0.52,-0.92,-0.21,-9.04,14.82,6.91,2
-0.22,-0.18,-0.06,-6.0,5.86,14.93,0.65,0.24,-0.09,5.86,-6.25,-0.34,-0.38,-0.02,-0.06,-7.09,-11.06,-9.69,2
-0.07,0.72,-0.66,8.16,-0.0,-8.02,-0.25,-0.06,0.66,-5.37,6.93,-0.34,-0.38,-0.02,0.69,9.51,-7.15,15.7,2
-0.52,-0.03,0.09,1.32,9.76,10.54,-0.25,0.24,-0.09,-0.97,-1.37,-6.68,-0.38,-0.47,0.24,-2.69,-7.15,-8.71,2
-0.52,0.27,0.09,-8.44,-0.98,7.12,-1.15,0.39,0.06,-7.32,-2.84,-11.57,0.82,-0.47,-0.06,-11.48,5.06,-4.81,2
0.08,0.12,0.24,35.02,-23.44,-91.03,0.05,1.29,-0.39,-20.99,-38.48,175.93,-0.08,-0.02,0.24,-115.49,65.6,212.48,2
-0.22,-0.63,0.69,-50.43,-9.77,-76.87,-0.85,-0.36,1.26,26.37,49.41,-120.94,-1.13,1.03,0.99,-238.04,111.5,519.12,2
-1.57,-2.13,2.64,-116.84,-61.04,-170.13,-2.65,-2.01,3.66,-28.32,132.42,-1009.13,-0.53,1.18,1.14,398.67,-145.82,-783.62,2
-2.17,-4.68,2.49,1.81,8.3,-17.78,-8.5,-2.16,10.41,37.11,-32.62,-280.12,-0.53,3.13,3.09,-22.71,-11.06,33.28,2
-1.12,-5.73,4.29,-14.79,6.35,-21.2,-11.5,-2.01,16.71,0.0,34.76,-35.01,1.57,5.08,3.99,14.89,-26.19,-67.79,2
-1.27,-5.88,5.64,41.36,4.88,-91.51,-12.4,0.24,24.66,6.84,28.9,34.82,-0.23,4.18,6.69,-103.28,46.56,85.53,2
-1.12,-4.98,6.24,24.76,43.94,-37.31,-6.85,1.59,21.81,18.56,19.14,21.64,1.72,4.18,5.64,38.81,-11.55,-57.05,2
-1.27,-3.93,5.19,-245.26,182.62,446.57,-3.25,1.29,15.66,-30.27,-77.54,362.46,0.52,3.73,5.64,137.44,6.52,-154.71,2
0.98,-1.38,5.79,-13.32,-5.86,-23.64,-2.2,-0.81,8.61,189.94,211.52,-2005.71,-0.53,2.38,1.89,-978.28,416.68,1074.72,2
-0.07,0.27,3.24,-1.6,-2.44,-26.57,-0.55,-0.51,3.66,8.3,25.48,-109.22,2.17,0.88,3.09,-10.99,-13.5,-23.36,2
2.48,-0.03,1.29,15.49,-0.49,-51.47,1.25,1.29,2.01,-52.73,-5.77,87.55,0.97,0.88,1.14,37.83,-19.36,-44.36,2
1.43,0.87,-0.51,21.34,-91.31,-329.31,1.4,0.69,0.66,20.51,52.83,-310.4,1.57,-0.02,-1.86,-180.43,32.4,124.1,2
2.93,0.72,-0.36,-123.19,5.86,239.05,3.8,1.74,-0.09,70.31,-5.28,-260.1,1.57,-1.07,-0.06,312.74,-94.55,-525.8,2
3.68,2.22,-1.56,-45.55,20.02,-90.54,2.9,3.09,-1.14,-22.95,15.72,99.27,2.32,-1.07,0.24,-130.13,60.23,97.73,2
0.83,2.22,-1.56,-39.2,43.46,19.33,3.65,3.54,-3.09,-21.48,75.78,-97.02,2.32,-1.52,1.74,59.81,-34.98,-175.71,2
0.83,3.42,-1.11,-48.97,35.64,204.87,3.2,3.54,-2.64,-21.48,-33.6,110.99,0.52,0.13,3.39,47.6,-16.43,-38.01,2
-1.72,2.67,-0.66,27.2,-70.8,263.95,0.65,0.69,-2.04,-21.48,-1.86,125.64,0.97,-1.67,4.14,158.93,28.49,-46.8,2
-1.12,1.32,-2.91,-471.82,-462.89,-732.14,-0.85,0.39,-2.64,-110.84,27.44,-11.57,0.52,-1.37,-0.21,167.72,82.69,6.91,2
0.83,0.27,-1.11,-5.51,0.97,17.86,-0.85,0.09,-1.89,12.21,6.44,-35.01,1.42,-2.12,-0.66,13.91,-9.59,-28.73,2
-0.22,-0.63,0.69,3.28,-1.47,8.58,-0.85,-0.36,-0.39,2.93,7.42,-2.29,-0.23,-0.17,-0.21,2.19,2.13,1.54,2
0.38,-0.78,0.54,11.09,2.93,-23.64,0.35,-0.36,-0.69,-10.25,0.09,-7.66,0.22,-0.17,-0.66,-10.51,9.94,25.47,2
0.38,-0.48,-1.11,-8.44,2.44,8.58,-1.75,0.24,0.66,-5.37,-6.25,8.94,0.37,0.28,-0.81,8.05,-1.29,0.56,2
0.08,0.12,0.24,3.77,9.76,12.98,0.05,0.09,0.81,-6.35,1.56,-5.22,-0.53,0.43,-0.66,5.12,13.84,-15.55,2
0.53,-0.18,0.24,-1.12,-1.47,7.12,0.2,0.99,-0.99,-5.37,0.58,5.03,-0.08,-0.47,-0.51,9.03,0.17,1.54,2
0.38,0.27,-0.66,4.74,-18.07,-14.85,0.05,0.09,0.81,-11.23,2.05,-30.61,-1.43,-0.17,0.54,-6.11,-7.15,13.26,2
-0.67,1.32,0.24,10.11,0.97,5.65,-0.55,-1.26,-0.99,0.0,13.28,1.13,-0.08,-1.52,-1.11,-10.51,12.38,2.52,2
0.38,0.27,-0.36,1.81,-6.35,-7.53,0.35,0.39,0.06,8.3,0.58,6.5,0.37,-0.02,0.99,-3.67,11.89,-1.39,2
0.38,-0.48,-1.56,7.18,-0.0,-13.88,-1.15,0.09,0.36,0.98,-1.37,-2.29,-0.98,0.13,-0.21,-1.23,3.1,16.19,2
0.83,1.17,-0.36,12.56,-7.81,6.63,-1.6,1.29,0.06,-6.35,7.42,-7.17,-0.38,-1.52,0.24,6.1,-5.2,-9.2,2
-0.22,-0.63,0.69,8.16,9.76,-2.16,-1.45,0.24,-0.09,-8.79,2.53,-2.29,0.82,-1.07,0.99,-8.06,5.54,6.42,2
0.38,0.27,-0.36,0.84,8.3,6.63,0.65,0.24,-0.54,1.95,-0.4,8.45,0.52,-0.92,-0.66,-13.92,3.1,-7.74,2
0.98,-0.18,-0.51,-8.44,-11.23,-13.88,0.2,-0.06,0.66,2.93,4.49,-4.73,-0.23,-0.62,0.09,-13.44,17.26,11.79,2
-0.67,-0.63,-0.06,11.09,-4.88,16.88,-1.6,0.09,0.06,1.47,2.53,9.92,0.82,-1.07,-0.06,-1.72,-11.06,-15.06,2
0.08,0.87,-0.51,3.77,-0.98,-5.09,-0.25,-0.81,0.96,1.95,-0.4,-10.59,-0.23,0.13,-0.66,6.1,3.59,1.54,2
-1.27,-0.03,-0.36,15.0,-5.86,-4.6,-0.4,-1.41,-0.69,-0.97,-4.3,-5.22,0.22,0.43,0.09,0.72,-2.76,-6.76,2
-0.97,-0.03,0.09,-9.42,-8.3,-3.14,0.65,-0.51,-1.29,7.81,0.58,13.33,-0.08,-0.47,-0.51,5.12,-2.27,3.49,2
-0.52,-0.48,-0.36,-9.42,3.42,6.63,-0.4,-0.66,-0.69,0.49,12.79,-10.1,1.12,-0.77,-0.06,-1.72,-1.78,-15.06,2
1.43,-0.63,-0.96,-2.09,5.86,5.17,0.8,0.39,0.06,-10.25,0.09,12.85,-0.23,-0.17,0.84,-1.23,-4.22,-2.37,2
-0.52,1.17,-0.36,8.16,-1.47,6.63,0.05,-1.11,0.36,-9.76,-4.79,-13.52,-0.38,0.73,-1.11,0.24,2.13,3.01,2
-0.52,-1.68,0.54,3.77,4.39,-4.6,0.35,0.09,-0.69,-0.97,-6.74,5.03,0.52,0.43,-0.96,13.42,2.13,-10.67,2
2.03,-0.78,0.54,10.11,-6.84,-11.44,-1.0,-1.56,-0.54,-4.39,-5.77,11.87,1.12,-0.77,0.69,-0.25,1.15,12.77,2
1.13,-0.48,0.09,4.74,-0.0,-2.65,-0.25,-1.26,-0.54,-2.93,-6.25,3.08,-0.23,-0.62,-0.21,-7.09,-0.8,3.49,2
-0.22,1.32,0.24,-8.93,-1.47,-2.65,-0.55,-0.06,-0.54,-1.46,0.58,-13.03,0.97,0.43,0.84,-12.46,-3.25,-3.83,2
-1.12,0.57,-0.06,-0.63,2.93,2.24,0.95,-0.06,-0.99,12.7,5.95,-12.54,-0.38,0.28,-0.51,-3.67,12.87,8.87,2
-1.27,-0.48,0.54,7.18,-2.93,0.28,0.8,-1.11,-0.39,1.95,-6.74,-3.27,0.82,-0.47,-0.06,3.17,4.57,7.89,2
-0.52,1.17,-0.66,-2.09,1.46,6.63,-1.45,0.24,0.21,-4.88,-0.4,-12.06,0.37,1.03,-0.81,-16.85,-1.78,1.05,2
-0.07,-1.23,0.09,2.79,-1.95,-6.55,-0.55,-0.06,0.96,0.0,1.07,16.75,0.82,-0.02,0.24,-15.39,2.13,-4.81,2
0.08,-0.18,0.24,9.63,0.49,4.19,-1.0,-0.51,-0.09,-3.42,3.51,-9.61,-0.38,-0.47,-0.51,15.37,-4.71,-7.25,2
0.08,0.12,0.24,6.7,3.9,9.56,0.95,-0.06,-0.54,-4.88,-1.86,4.06,-0.38,0.28,-0.81,2.68,-4.71,-7.74,2
0.53,1.32,-1.26,8.65,3.9,-9.48,0.2,0.69,0.21,0.49,-9.18,3.08,-0.08,0.73,-0.51,-6.6,7.5,0.08,2
-0.52,1.47,0.09,4.25,6.83,12.98,1.7,0.39,-0.39,10.26,-1.86,-19.87,-0.38,-0.47,0.99,-21.25,8.47,27.91,2
-1.87,-0.18,1.44,14.51,14.16,0.77,0.2,0.69,0.66,5.86,7.91,-31.1,-0.23,0.88,-0.21,-19.78,-4.71,7.89,2
1.13,1.17,-0.36,4.25,1.95,15.91,-0.4,0.39,0.36,4.4,-0.88,12.85,-0.53,-0.17,-0.21,36.37,-4.71,-17.01,2
-0.07,0.27,-1.56,-5.51,11.72,-1.18,-0.4,0.39,-0.69,3.91,-7.72,25.54,0.37,-0.02,0.69,22.21,-1.29,-33.62,2
-0.97,0.27,-0.66,11.58,10.74,-7.04,0.65,-0.06,0.66,5.86,35.25,-148.29,-0.23,-0.92,-0.66,1.7,-6.18,-9.2,2
-0.52,-0.03,-1.56,30.13,21.97,53.99,0.95,-0.06,0.21,-8.3,-24.32,-34.03,-1.73,-1.67,-0.96,119.38,-86.74,-381.27,2
-1.27,-1.23,-0.66,89.22,-129.4,-746.79,-1.0,-0.51,-1.74,-55.17,30.37,-184.91,-0.08,0.28,-0.06,-184.82,89.53,254.47,2
-1.87,0.57,-3.21,-269.67,-104.98,-94.44,0.05,-1.11,-3.39,638.19,71.87,-1600.92,-0.53,-1.67,0.54,19.28,146.66,0.56,2
0.53,3.72,-4.11,39.9,1.46,-56.85,0.95,-2.01,-4.74,18.07,-3.81,53.86,0.82,-0.02,2.19,29.05,-11.06,2.03,2
2.63,4.77,-3.66,15.97,17.09,-85.17,4.85,-1.41,-1.89,-49.8,-17.0,219.88,0.82,-0.47,3.99,-12.46,35.82,67.46,2
4.88,4.17,-1.56,47.22,88.87,586.22,5.9,0.24,-0.09,-13.67,-30.18,-179.05,1.72,0.13,3.84,16.84,-54.51,-246.51,2
2.93,1.47,1.59,110.21,416.5,584.27,2.3,0.99,1.41,581.54,-89.75,1018.16,0.82,1.78,2.19,-570.08,606.62,1074.72,2
0.38,-0.78,5.19,10.6,15.62,94.52,-0.55,2.49,4.41,-33.2,-10.16,267.73,-0.98,1.18,-0.21,79.83,-27.17,-99.04,2
-1.57,-0.18,2.19,70.66,10.74,102.82,-4.6,-0.06,2.91,-39.55,38.67,-1.8,0.82,1.48,-1.11,-10.99,28.0,172.93,2
-0.07,-0.03,1.29,-36.76,9.76,792.28,-2.2,-1.56,-0.09,-104.98,85.54,-208.83,0.82,1.03,1.44,341.55,-168.28,-762.13,2
1.13,2.67,-2.31,-9.91,60.06,131.63,-1.0,-0.81,-4.74,67.38,-58.01,173.49,-0.53,0.13,1.14,136.47,296.56,195.88,2
3.83,5.97,-2.46,-4.53,20.99,114.05,3.5,0.69,-7.74,8.79,2.05,22.12,0.37,-0.02,2.94,80.8,20.19,140.21,2
4.13,3.42,-1.56,57.48,40.53,531.04,8.3,0.24,-4.29,-62.01,-22.37,49.96,0.82,-0.77,3.54,103.26,-86.25,-184.01,2
2.18,1.32,-0.96,248.88,-392.09,-3009.97,4.4,-0.36,-3.09,14.65,-778.72,1018.16,1.42,0.43,3.09,164.3,-23.26,-1012.62,2
0.53,-0.18,-0.51,10.6,1.95,10.05,1.4,0.69,-1.74,-4.39,-6.74,-18.4,-0.38,-0.47,1.74,0.72,3.59,-2.37,2
0.08,0.57,-0.06,-2.09,0.49,-11.92,0.95,0.24,-0.99,-2.44,-0.4,-8.64,0.37,-0.77,-0.51,7.07,7.99,-10.18,2
0.38,0.72,-0.36,-9.42,-5.37,-5.58,0.35,-0.66,-0.69,11.23,-5.77,-1.31,-0.83,-0.47,1.44,-10.51,14.82,16.68,2
-1.12,1.32,-0.51,5.23,2.44,9.07,0.35,1.59,-0.69,1.47,-9.18,7.48,0.52,0.13,0.54,19.28,-11.55,-16.53,2
-1.27,-0.03,-0.66,-0.63,-5.37,5.17,0.05,-0.36,0.06,3.91,0.58,5.03,0.82,0.28,-0.06,8.05,-2.76,-12.13,2
0.38,-1.23,0.09,-1.12,4.39,-0.21,0.65,0.69,0.21,16.11,-4.79,17.73,-2.18,0.43,0.54,-0.74,8.47,7.89,2
-0.52,-0.03,-0.36,-0.14,-10.74,2.72,0.65,-0.06,-0.09,4.88,-8.7,1.62,-0.23,-0.17,-0.66,-0.74,-3.73,-36.54,2
-0.67,-0.63,-0.06,1.81,-10.74,-0.21,-0.4,-0.36,-1.14,0.98,-2.84,0.15,0.82,-0.02,-0.06,-3.67,8.47,25.96,2
1.13,0.27,0.54,4.74,-5.86,9.56,1.25,0.84,-1.89,-4.39,-1.37,-7.17,0.97,-0.62,0.09,3.17,-6.66,-14.08,2
-0.22,-0.18,-0.06,14.02,-14.65,-10.46,0.8,-0.36,1.26,3.42,7.42,-1.31,-0.08,-0.47,-0.81,-7.09,-4.22,12.28,2
-0.67,0.12,-0.51,-7.95,-3.91,3.7,0.2,-1.26,0.96,7.33,-10.65,13.82,-0.83,-0.47,0.24,3.65,4.08,1.05,2
0.08,0.87,0.69,-19.18,-2.93,-3.62,0.2,-0.51,-0.09,-4.39,-1.37,-1.8,0.52,-1.37,-0.96,-1.72,1.15,2.52,2
-0.97,0.27,-0.66,1.32,3.9,17.86,-1.75,0.99,0.66,-4.39,0.58,10.41,1.42,-0.92,0.09,-2.69,1.15,16.19,2
-0.52,-0.48,-0.66,0.35,-5.37,10.05,0.8,0.39,-1.14,7.81,-4.79,-7.17,-0.53,-0.92,-0.66,4.14,-5.69,-36.06,2
0.38,-0.03,-0.36,6.7,2.44,-26.08,0.8,0.09,0.36,5.86,-3.81,-7.17,-0.83,-1.07,-1.11,1.21,9.94,42.56,2
0.98,-0.63,-1.26,15.0,-0.0,23.23,0.2,0.69,-0.54,9.77,0.09,-8.64,0.22,-0.92,-0.66,10.0,-11.55,-38.5,2
0.08,0.12,0.69,2.79,-10.74,4.19,0.35,-0.36,-0.69,10.26,0.09,10.89,0.52,-0.62,-0.21,-11.97,0.66,25.47,2
-0.22,0.12,0.69,-2.58,-16.11,6.63,-1.0,-0.06,-0.54,-9.76,-5.28,-12.54,-0.98,0.13,-0.96,-14.41,11.4,8.38,2
0.38,0.72,-0.36,-4.53,-0.98,15.42,0.8,1.29,-0.69,6.35,4.98,15.78,-0.98,-0.92,-0.21,0.72,-0.8,-3.34,2
0.08,0.12,-0.96,8.65,-13.67,6.14,-0.85,-0.36,-0.69,-4.39,-6.74,6.01,-0.08,1.78,0.24,-5.13,13.84,10.82,2
0.53,-0.63,0.24,2.3,0.97,3.7,-0.4,1.29,0.36,-6.83,4.49,2.1,1.42,-1.37,0.09,2.68,-3.73,-8.22,2
-0.22,0.12,-0.51,7.67,-6.84,2.72,-0.85,-0.66,-0.39,-8.79,5.46,-9.61,-0.08,1.48,-0.06,-12.95,5.54,10.33,2
-0.52,0.27,0.84,0.84,1.95,27.63,-0.4,0.84,-0.39,6.35,-11.14,3.08,0.37,-0.02,-0.81,10.0,0.66,-29.71,2
-0.97,-0.48,-0.36,-0.14,-7.81,-1.67,1.25,-0.36,0.36,-18.06,-1.86,3.57,-0.53,-0.62,0.09,-20.27,-3.73,15.21,2
-0.52,0.27,0.54,5.72,6.35,5.17,-0.4,-0.36,-0.69,-6.35,0.58,-13.52,0.82,-0.02,0.24,5.12,-5.2,-14.08,2
0.83,-0.03,0.54,2.3,-9.28,-2.16,0.05,0.39,0.06,1.47,1.56,6.99,-1.43,-0.17,-0.66,-10.51,-0.32,13.75,2
1.58,1.17,1.29,2.3,6.35,-3.14,0.2,-0.06,0.21,1.47,10.83,-2.29,-0.08,1.48,-1.11,14.89,-5.69,-3.83,2
-0.22,-0.18,0.24,-0.63,-9.77,-9.97,0.2,0.24,0.66,-10.25,-2.35,10.41,-0.38,1.78,-0.81,-1.23,10.91,16.68,2
1.58,0.27,0.09,-8.44,-1.47,-0.21,-1.0,0.24,-0.99,3.91,1.07,-1.31,-0.83,0.28,0.24,3.65,-2.27,-1.88,2
-0.97,-0.03,1.29,0.35,-0.0,-8.51,0.65,-0.06,0.66,6.84,-16.02,-2.29,0.37,-1.07,-0.06,-10.02,-7.15,11.31,2
1.43,-0.63,-0.96,-10.88,-6.35,2.72,0.05,0.09,0.06,-1.95,3.51,-2.29,0.82,0.28,0.69,14.89,-1.29,8.87,2
-0.07,0.27,0.54,-2.58,-14.16,-4.11,0.35,-0.66,-0.69,-8.79,-2.84,5.03,0.52,0.88,-0.21,-31.01,27.03,95.78,2
0.38,-0.03,0.09,14.51,-5.37,61.81,0.05,1.59,-1.89,-42.97,44.04,-101.41,-0.53,-0.62,-0.66,59.81,1.15,-32.64,2
-2.32,0.57,-0.96,-57.27,-16.11,81.34,-1.0,-2.01,-0.99,24.9,-38.48,285.31,0.37,0.28,0.24,-269.29,136.89,651.93,2
-2.62,3.12,0.09,61.87,36.13,-96.4,-4.3,-2.31,-3.54,76.66,-123.93,453.76,-0.23,-0.62,0.84,-844.49,275.56,826.74,2
-4.27,3.87,0.84,6.7,-1.47,-24.13,-3.7,-4.86,-4.89,5.37,-10.16,86.58,1.12,0.28,2.94,19.77,-4.71,3.01,2
-5.77,4.02,-0.06,22.32,-3.42,14.93,-4.9,-10.11,-8.79,18.07,24.02,-29.15,0.52,1.18,6.39,-5.62,34.84,87.48,2
-4.27,5.07,-1.56,14.02,-3.42,59.85,0.2,-10.26,-8.19,-15.14,29.39,155.42,2.47,0.88,8.64,16.35,2.61,65.99,2
-3.22,1.32,-0.96,-21.14,-31.25,-140.34,0.35,-6.66,-7.29,15.14,4.98,124.66,1.42,1.93,5.94,-18.32,9.45,42.56,2
-1.12,-1.08,-0.51,75.06,-16.11,741.01,0.05,-1.86,-2.19,-45.9,179.29,-690.28,0.82,1.03,6.54,46.14,101.74,-455.0,2
-0.67,-0.18,1.89,13.53,5.86,11.51,-2.5,-2.16,2.01,-16.6,-17.0,82.67,-0.38,0.73,1.44,-22.22,18.73,86.5,2
-2.77,-2.13,2.19,8.65,7.32,-21.2,-1.75,-0.81,2.46,3.91,20.11,-112.64,0.22,1.18,1.89,8.54,-9.1,-23.36,2
-1.57,-0.63,1.89,15.0,30.27,191.69,-2.05,-2.16,2.01,9.77,-3.81,-7.17,-0.08,0.73,1.74,64.69,-35.47,-152.27,2
-0.52,-0.48,0.84,40.88,6.35,-401.57,-2.5,-0.66,0.81,-51.27,-142.0,461.09,-1.13,0.73,2.19,-63.24,21.66,20.1,2
-0.22,-0.63,2.19,-99.26,-77.64,-465.54,-1.75,0.24,0.66,-13.18,74.31,-371.43,-1.58,0.28,1.44,37.35,44.61,233.47,2
-0.52,-1.23,2.04,103.38,-31.74,81.34,-2.05,0.09,0.06,36.13,-23.34,3.08,-0.23,0.43,1.89,-133.06,131.03,312.58,2
0.53,-2.13,2.19,0.84,6.35,-45.13,-3.1,0.99,0.96,-48.83,102.63,-29.63,-1.13,1.03,0.99,-45.17,41.68,104.08,2
1.43,-0.18,0.24,41.85,31.74,49.6,0.65,2.19,2.91,-20.02,163.67,-27.68,0.22,1.18,2.64,6.1,27.03,75.76,2
-1.27,-0.03,2.04,23.3,94.24,-232.14,-1.6,0.39,1.56,155.76,38.18,-76.51,0.97,0.43,2.64,51.99,13.84,-22.38,2
-0.07,0.27,0.09,-4.53,9.28,30.56,-2.65,0.24,-0.54,20.02,1.56,11.87,-0.23,0.43,0.54,139.4,-151.19,-2708.42,2
-1.12,-0.18,0.69,12.07,-8.3,-8.99,-0.4,-0.66,-0.69,-3.9,4.98,-8.64,0.37,-0.02,0.69,-3.18,19.7,53.3,2
-0.52,0.72,-0.36,-0.63,13.67,29.58,0.35,-0.66,-1.14,11.72,-7.72,9.43,-0.98,0.43,0.84,-1.23,-5.69,-39.47,2
1.13,-0.03,1.59,6.21,4.39,-10.95,-0.25,-0.51,-0.09,-7.81,-5.77,10.89,-0.38,-1.07,1.44,-23.69,28.49,59.16,2
-1.27,-0.48,0.54,12.56,-5.86,30.56,0.65,0.24,-0.99,-1.46,0.58,-28.66,1.12,0.73,-0.81,22.7,-20.34,-51.19,2
-0.07,0.72,-0.66,4.25,-2.44,22.26,1.25,-0.66,-0.69,2.93,-11.63,40.68,-1.43,-0.92,0.84,3.65,-1.29,3.01,2
-0.07,-0.03,0.09,9.14,0.97,14.93,0.35,-0.66,-0.69,-11.72,-3.81,6.99,0.22,0.88,-0.21,16.35,-11.55,-9.69,2
0.98,0.57,0.69,11.09,9.76,10.54,0.2,-1.26,-0.54,-6.83,-0.4,19.19,-0.83,-0.02,-0.06,-7.09,1.64,-8.22,2
-0.07,-0.48,-0.66,-7.46,12.21,-15.83,-0.25,0.99,-1.29,-14.65,-0.4,-17.92,-0.53,-0.62,0.09,-17.34,10.43,24.98,2
-0.22,-1.08,0.24,8.16,-2.93,-0.21,0.05,0.39,-0.39,1.95,6.93,1.62,-0.08,-0.02,-1.11,4.14,2.13,-5.29,2
0.53,1.32,-0.06,4.74,-2.44,-8.51,0.05,0.09,-1.14,0.0,0.58,-5.22,-1.43,0.13,0.54,-0.25,-3.73,12.28,2
-0.22,0.57,0.24,12.07,0.49,5.65,-0.4,0.39,-0.69,2.44,1.07,-8.64,0.37,-0.77,-0.51,7.07,-15.94,-17.99,2
-0.52,0.72,0.09,-4.05,10.25,12.98,-0.25,0.24,-0.54,-12.21,-1.37,28.96,-0.38,0.28,-0.81,-10.02,2.61,9.35,2
0.83,-0.78,-0.36,2.3,2.44,-8.99,0.65,-0.51,0.21,5.37,3.02,-13.52,-0.98,-0.92,0.84,-10.51,9.45,23.51,2
1.43,0.12,-0.51,-11.37,1.46,-6.55,-0.55,0.99,0.21,1.47,8.88,-21.82,-0.23,-0.17,-1.41,4.14,-6.66,-5.78,2
0.83,0.72,0.54,-13.81,-3.91,12.0,0.35,1.29,0.36,2.44,-4.79,11.38,-0.08,-0.02,0.24,16.35,-6.18,-20.92,2
0.08,-1.38,-0.96,10.6,3.9,-9.48,0.2,-1.26,0.96,-5.86,-0.88,9.92,-0.08,0.28,-0.06,-24.18,0.17,34.74,2
-1.27,-0.78,-1.11,7.18,-1.95,-0.69,-1.6,-0.36,-0.39,-2.93,-0.88,-26.7,0.37,-0.47,-0.51,-12.46,-7.64,-21.9,2
0.38,0.27,-0.66,11.09,9.28,-4.6,0.2,-0.06,-0.99,0.98,-18.95,5.03,-0.83,1.48,-0.06,-8.06,-2.27,25.47,2
1.43,0.57,-0.96,2.3,-10.26,4.19,0.05,0.09,0.06,2.44,-4.79,-24.75,-0.23,0.43,0.09,25.63,-3.73,-23.36,2
0.98,0.57,-0.06,11.58,-0.98,-7.04,0.65,0.69,1.41,4.4,4.0,31.4,0.52,-0.92,0.09,1.7,-3.25,-0.9,2
-0.97,-0.48,0.84,0.35,7.32,-12.9,0.8,-2.16,-1.14,-2.44,7.91,-20.36,-0.53,-0.17,-0.96,-18.32,6.52,30.84,2
0.08,0.87,-0.06,-1.12,5.37,6.63,-0.25,-0.51,-0.99,4.4,-2.35,4.55,-0.08,-0.77,-0.51,22.7,-6.66,-40.94,2
-0.52,0.27,0.84,-4.05,-13.19,3.7,-1.45,0.24,0.66,-4.39,-5.28,12.36,0.22,0.88,-0.21,-10.02,-1.29,39.63,2
0.53,0.12,-0.96,6.21,4.39,0.28,0.95,0.24,-0.09,0.49,-5.77,-9.61,-0.83,-0.77,0.24,16.84,-6.18,-25.31,2
0.38,-0.03,0.84,-10.39,2.44,-6.06,0.35,0.39,-0.39,0.49,3.51,3.08,-0.83,1.03,-0.06,-11.97,6.52,21.07,2
0.98,0.12,0.24,2.3,2.93,3.21,0.2,-0.81,-0.54,-8.3,6.93,0.15,0.52,0.88,-0.21,19.28,-0.8,-17.99,2
-0.67,-0.18,0.24,6.21,-10.26,-0.21,-0.85,-0.66,0.06,-4.88,-0.88,-4.73,-1.43,0.88,0.54,-7.09,13.36,18.14,2
-0.07,1.17,0.84,-1.12,-2.93,11.51,0.2,-0.51,-0.09,5.37,3.02,12.36,0.22,0.13,0.09,6.1,2.13,1.54,2
0.53,0.57,0.24,15.49,19.53,-15.34,1.85,-0.51,0.66,4.4,9.86,-6.68,-0.08,-0.47,-0.81,-13.92,-3.25,23.51,2
-0.22,-0.18,-0.96,-19.67,4.39,6.14,0.2,0.99,-0.54,0.98,-9.67,0.64,-0.38,-0.47,-0.06,12.44,10.43,-6.76,2
1.88,0.12,-0.51,-3.07,-5.86,-2.16,0.35,-0.66,-0.39,-4.88,-7.23,-14.01,-0.83,-0.02,0.69,-5.13,4.08,9.35,2
-0.52,0.72,-0.66,5.23,2.44,-15.34,-0.4,2.04,-1.44,-16.11,-6.74,40.19,1.72,0.43,0.54,96.92,-49.63,-226.49,2
-1.87,-1.38,-0.51,-38.23,-21.97,-175.01,0.65,0.69,0.21,-12.69,65.52,-344.58,-1.13,-0.02,0.69,-42.73,18.73,2.52,2
-0.07,-0.78,3.69,-81.68,50.29,580.85,-1.45,-0.06,0.96,58.6,23.04,-317.23,-0.98,0.88,0.84,350.82,-159.5,-729.42,2
-0.97,-3.93,8.79,-32.37,31.25,67.67,-4.0,1.29,7.26,198.73,-191.31,100.74,-0.23,1.18,0.54,38.32,45.09,205.64,2
4.58,-8.28,11.49,-50.43,6.35,312.78,-5.8,7.44,10.56,13.67,-91.22,109.53,2.02,4.03,5.04,-2.69,27.52,22.54,2
5.33,-5.88,9.99,16.95,-3.91,116.01,-2.05,6.54,11.46,-3.42,89.45,12.36,1.12,4.33,6.54,82.76,-7.64,-85.37,2
2.48,-3.18,7.14,490.58,-733.4,989.97,-1.6,2.04,8.01,-473.14,-671.78,-317.72,2.17,4.18,3.09,-555.43,178.4,1074.72,2
0.53,-1.08,5.04,41.36,-2.93,-164.76,-1.75,0.99,7.26,-65.43,-36.53,392.24,1.12,4.33,2.49,54.44,-10.57,-80.49,2
-0.07,-0.78,2.04,6.7,-75.2,-306.36,-1.0,-0.06,3.36,3.42,184.66,-917.82,0.52,2.38,0.54,316.15,-47.68,-439.38,2
-1.87,0.57,-0.96,-88.52,8.79,-47.57,-2.5,-0.66,-0.39,-75.68,100.19,33.84,0.82,2.83,2.49,346.43,40.7,108.96,2
-2.77,2.82,-2.91,-14.79,58.1,126.75,0.2,-0.81,1.71,22.46,-53.13,406.4,0.52,1.18,4.59,-40.29,49.98,121.66,2
-2.32,0.57,1.14,201.52,-69.34,-927.45,-1.15,0.84,3.06,-79.1,104.58,-62.35,2.02,1.78,2.94,-136.48,120.78,679.28,2
1.58,-0.48,-0.36,-3.56,-0.98,-21.69,-0.55,-0.51,1.41,1.47,0.09,9.92,1.72,0.13,0.54,10.98,19.22,-1.88,2
0.53,1.32,-0.06,2.79,-2.93,-9.97,0.05,0.09,-0.39,1.95,-1.86,-12.54,0.22,0.88,1.14,-4.16,-6.18,5.94,2
0.08,0.87,1.14,-5.51,16.6,1.26,-0.55,-0.06,-1.29,0.98,5.46,-2.29,-0.53,0.43,0.54,11.47,-2.27,-5.78,2
-1.12,1.77,0.69,21.34,-5.37,-6.06,-0.55,0.24,-0.54,1.95,9.37,-8.15,-0.08,0.28,-0.81,-7.09,-4.71,-5.78,2
-1.12,0.57,0.69,15.49,3.9,1.26,0.2,-1.26,0.66,-2.44,-1.37,13.33,0.52,0.13,-0.21,-6.11,4.57,-5.29,2
-0.22,0.57,0.69,-1.12,1.46,-23.15,-0.4,-1.11,-0.69,-9.76,-1.86,-8.64,-0.38,-0.02,0.99,-10.99,8.47,25.47,2
0.08,0.12,-0.06,-2.58,1.46,4.19,0.65,-0.81,-0.09,-7.32,-7.72,8.94,-0.23,-0.17,0.84,4.63,3.59,-4.81,2
0.08,0.12,1.14,8.16,-3.91,-0.69,-0.25,0.69,0.96,-3.42,8.39,3.08,0.82,-0.02,-0.51,-2.69,-4.22,16.68,2
0.53,0.87,0.24,0.84,-0.0,12.49,-0.85,0.39,-0.39,-6.83,-0.4,-3.76,0.52,0.43,0.84,9.51,13.84,-8.71,2
-0.22,-0.18,-0.06,5.23,2.93,9.56,-0.25,-0.06,-0.54,-1.46,-2.84,14.31,0.37,-0.02,-0.81,-7.58,3.59,21.56,2
-0.52,0.72,0.09,5.23,-3.91,12.49,0.05,0.09,-0.39,-18.06,17.67,-14.5,0.97,0.43,1.14,11.47,0.66,-17.99,2
0.53,1.77,0.24,-11.37,-0.49,4.68,-1.45,0.69,0.21,9.77,-2.84,25.05,-1.13,-0.02,-0.06,-23.69,6.52,7.4,2
-0.97,-0.03,-1.11,-0.14,-7.81,-5.09,0.05,-1.11,1.26,-2.93,-2.35,12.36,-0.38,-0.77,-0.51,3.17,9.94,0.08,2
-0.07,0.72,0.09,7.18,-17.09,-0.21,-0.4,-0.66,0.81,-3.42,-3.81,-17.92,0.52,-0.62,-0.66,10.98,-4.71,-4.32,2
0.83,1.47,0.09,5.23,2.44,-11.44,0.65,-0.06,-0.09,8.3,-17.0,6.01,-0.98,0.43,0.84,-2.2,-3.25,11.31,2
0.38,1.17,-0.66,-0.14,-4.4,-5.58,0.05,0.84,0.36,10.26,4.0,-4.24,0.22,-0.17,-0.66,-15.88,-2.76,12.77,2
0.38,1.17,-1.11,2.3,-5.37,9.07,0.8,-0.66,0.36,1.95,10.35,-0.83,-0.98,0.88,0.54,-3.18,-4.22,-1.39,2
0.83,0.27,0.84,-2.58,11.23,7.61,-0.85,-0.36,-0.39,3.91,11.81,4.06,-0.08,-0.02,-0.51,10.0,2.61,-19.46,2
1.43,0.87,-0.06,-1.6,-12.21,-2.16,-0.4,-0.36,-0.39,4.88,5.46,0.64,-0.23,0.43,0.84,-16.36,-5.2,8.87,2
0.38,-0.03,-0.36,8.65,17.58,9.56,1.4,-0.51,0.66,6.35,-1.86,-18.89,0.37,-0.02,-0.06,-18.81,-4.71,1.05,2
0.53,-0.63,-0.96,5.23,1.95,12.49,0.2,0.99,0.21,-10.74,0.09,5.03,0.82,0.73,-0.51,-5.13,-7.15,7.89,2
-0.22,-0.18,1.14,-8.93,2.44,-5.09,-0.25,0.24,-0.09,-10.74,3.02,-6.68,-0.08,-0.47,-0.06,6.1,-1.29,-2.85,2
-0.97,0.27,1.29,-3.07,0.49,-3.62,0.05,-1.11,0.36,1.95,4.98,-6.68,-0.38,0.73,0.24,-22.71,2.61,27.42,2
0.98,0.57,-1.26,-0.14,-0.98,-3.14,0.05,-0.36,0.81,-19.04,7.91,-6.2,1.12,-0.47,-0.06,12.44,-16.43,4.96,2
0.83,0.72,1.29,9.14,1.95,8.58,0.2,0.24,0.66,-5.86,-6.25,0.64,0.22,1.63,-0.21,-1.23,-2.76,1.05,2
1.13,1.17,-0.66,5.23,3.42,9.07,1.4,-0.51,0.21,3.42,-4.3,-13.52,-0.08,0.73,-0.51,-18.81,8.47,21.56,2
-0.22,0.57,0.69,6.7,11.23,8.1,-0.85,1.29,0.36,-3.9,-6.25,10.89,-0.53,-0.17,-0.96,19.28,-6.18,-22.87,2
0.38,0.72,-0.36,-5.02,10.74,3.21,-0.25,-0.51,0.66,1.47,13.28,-7.66,0.22,-0.17,-0.96,-10.51,10.43,19.61,2
0.53,-0.18,-1.26,-3.07,-9.77,-8.02,-0.85,-0.66,-0.69,-1.46,-2.35,8.94,-0.53,0.13,0.54,7.07,2.61,-3.34,2
-0.22,0.57,-0.51,11.58,-10.74,-13.39,0.2,-0.51,0.96,-1.95,-9.67,2.1,0.22,-0.17,0.09,-12.95,-1.78,-1.39,2
0.38,-0.48,0.54,1.32,13.18,15.42,-0.25,0.24,0.21,-1.46,-0.4,-5.71,0.52,0.88,0.84,-13.92,-0.32,8.38,2
-0.52,-0.78,0.84,6.7,-1.95,-2.65,-1.75,-0.81,0.96,-7.81,-2.35,-6.2,-0.38,-1.07,0.69,3.65,-1.29,-7.74,2
-0.52,0.27,-0.66,5.23,-7.81,1.26,-0.25,0.99,-0.54,2.93,1.07,-0.34,-1.43,-0.17,1.14,-2.2,-0.32,12.77,2
-0.97,-0.48,0.09,-6.98,-2.44,14.93,1.7,-0.66,0.36,2.93,-0.88,-9.61,0.37,-0.47,0.69,-6.6,4.08,5.45,2
-0.67,0.57,-0.06,4.74,-1.47,-12.9,0.05,-0.36,0.36,1.95,-8.21,11.87,-0.23,-0.92,-0.21,0.72,-6.66,-4.81,2
0.08,0.57,1.14,7.18,-0.49,1.26,0.05,0.39,0.06,-3.42,-5.77,-0.83,0.52,-0.62,0.84,-6.11,11.89,0.08,2
-0.07,-0.03,0.54,-4.53,0.49,1.26,0.05,0.39,-1.14,7.33,1.56,-3.27,0.22,0.13,0.54,2.19,0.17,24.0,2
-1.27,0.27,-0.36,-6.98,1.95,11.51,0.2,0.99,-0.09,-9.28,6.44,-6.68,-0.23,-0.92,-0.21,-4.16,-1.29,-3.83,2
-0.67,-1.08,-0.06,14.02,-9.28,-35.36,-0.25,-0.06,-0.09,-6.83,11.81,-28.66,-0.23,1.63,0.09,-15.88,14.82,58.18,2
-0.52,-0.78,0.09,-8.93,-5.86,-115.93,-0.85,0.39,0.81,2.93,9.86,-79.93,-0.08,-1.07,-0.51,-51.52,21.66,78.69,2
0.53,-0.63,-0.51,-26.51,-19.53,-137.41,0.2,0.99,0.21,41.51,-21.39,-88.23,1.12,-0.02,0.69,-74.47,42.16,161.7,2
-0.22,0.87,-0.51,87.75,53.71,334.76,-0.4,0.09,-1.14,-47.36,108.49,-246.43,-0.53,-0.62,-0.66,-62.26,35.33,73.81,2
-0.07,0.27,-1.56,-132.95,-65.43,377.72,0.2,0.69,-2.49,-68.36,165.13,-799.65,-0.08,-1.07,-2.31,257.07,-128.25,-549.24,2
-0.97,1.17,-1.56,14.02,9.28,-72.96,-0.55,2.19,-2.79,-11.72,66.99,-119.97,-1.43,-1.37,0.09,6.1,17.75,103.1,2
-1.87,1.77,-1.26,4.74,-2.93,-108.12,-4.45,3.84,-4.14,3.91,20.11,68.02,0.22,-2.12,2.34,30.51,-29.12,-65.35,2
-1.72,1.92,-1.11,15.0,11.23,71.08,-6.1,1.29,-4.14,0.98,-65.83,137.36,-1.13,-3.02,7.29,-65.68,-20.82,277.91,2
-2.17,1.17,-0.36,37.95,3.9,262.98,-7.3,-0.36,-2.64,2.44,56.25,-264.5,-1.43,-1.37,5.64,1.21,-19.85,-41.43,2
-2.62,0.27,0.54,-709.61,-87.89,989.97,-5.65,-2.61,-1.44,-166.01,-308.01,1018.16,-2.03,-0.77,5.79,749.75,-257.15,-1484.79,2
-0.97,-1.68,2.04,-10.39,3.42,22.26,-1.15,-1.86,2.76,-10.25,-13.09,91.46,-0.08,-0.02,2.19,53.46,-26.19,-112.72,2
-0.52,-0.48,1.29,13.04,26.85,136.51,0.8,0.84,0.81,-13.18,31.83,-108.74,1.72,0.13,1.14,106.19,-48.17,-152.27,2
0.83,-0.03,1.29,-66.55,74.22,383.58,1.4,0.24,2.46,60.06,-78.03,106.6,2.32,-0.02,0.99,334.22,-177.07,-784.1,2
-0.22,0.12,1.44,53.08,186.52,-283.9,0.95,-0.81,1.71,-173.83,-17.0,-303.56,0.82,1.03,1.74,-121.83,78.3,58.67,2
0.08,-0.63,0.24,-37.74,16.11,-169.64,2.6,-0.06,4.86,-11.23,47.94,21.64,2.02,1.48,3.99,-360.11,59.74,246.66,2
1.43,0.87,1.44,4.74,22.95,253.21,6.35,-2.76,9.81,-15.14,41.6,-84.81,3.67,3.43,4.59,4.63,18.24,70.39,2
0.53,-1.83,0.24,-18.69,-26.37,342.08,4.4,-2.61,5.76,16.11,5.46,3.08,2.92,3.43,2.34,-0.74,-1.78,109.94,2
-0.52,-0.48,0.54,-751.6,-243.17,-1670.62,3.05,0.69,3.66,271.49,-176.67,-1186.37,2.17,2.38,2.34,218.01,-140.45,-1034.59,2
-0.67,0.12,-0.06,20.86,4.88,-9.97,0.35,-1.11,0.36,-0.97,-2.35,-3.76,1.72,1.63,0.54,-7.09,2.13,5.94,2
-0.67,-0.18,1.14,-2.09,11.23,5.65,0.65,-0.51,-0.09,8.3,-6.25,-1.8,0.22,0.43,1.14,-11.97,-0.8,-5.29,2
0.98,-0.18,1.14,0.84,12.21,-8.51,0.95,-0.06,0.21,-2.93,-11.63,4.55,0.22,-0.92,-0.66,-27.6,3.59,38.65,2
-0.52,0.27,0.84,17.44,2.44,-40.73,-0.25,-0.81,-0.54,-8.79,-5.77,-12.54,-0.38,-0.77,0.69,-5.13,3.59,1.54,2
-0.22,-1.08,-0.06,-1.12,-3.42,-3.14,1.25,0.39,-0.69,11.23,-4.3,-6.68,-1.13,-1.07,0.69,-7.09,9.45,11.79,2
0.38,-0.03,-0.66,20.86,5.86,20.3,-0.85,-0.66,-0.69,5.37,9.86,-13.03,-1.13,0.28,-0.06,10.98,-5.2,-1.88,2
-1.12,0.12,-0.51,1.81,9.28,8.58,0.65,-0.06,0.21,5.86,0.09,-5.22,0.22,-0.92,0.84,7.07,-3.25,-1.39,2
-0.07,0.27,-0.36,7.18,11.72,4.68,-1.45,0.24,0.21,-0.97,-9.67,6.5,-1.43,0.88,-0.96,6.1,2.13,-6.76,2
0.08,0.57,1.14,-4.05,3.9,11.51,1.4,-0.81,0.96,-9.76,1.56,-1.8,0.37,-0.47,0.99,8.05,11.4,-1.39,2
-0.22,0.57,-0.06,4.25,-8.79,6.63,0.35,0.84,-0.69,1.47,2.05,-9.13,-1.43,-0.17,0.09,13.42,-2.27,-14.57,2
1.13,1.92,0.54,-0.14,-0.98,5.65,-1.45,0.24,-0.99,-4.39,-1.37,11.38,-0.53,0.43,-0.66,-4.65,5.54,20.58,2
1.43,0.57,0.69,8.65,6.35,12.98,0.05,0.09,1.56,7.81,9.86,-13.52,-0.53,0.13,0.09,6.58,2.61,-5.78,2
0.08,0.57,-1.26,-0.63,-7.81,1.75,0.05,-0.66,-0.39,-4.39,7.91,3.08,0.37,-0.47,0.69,-7.58,-7.64,6.91,2
1.13,1.47,0.09,5.72,-3.91,-1.67,-1.15,0.84,-1.14,-9.76,-5.77,5.03,1.42,0.43,-0.21,-8.06,2.13,2.03,2
-1.57,1.32,0.24,-10.39,8.3,6.63,0.35,0.39,0.06,-0.49,15.23,-3.76,-0.53,-0.62,-1.41,9.51,11.4,-13.11,2
-0.07,0.27,0.09,8.65,10.74,-0.69,-0.85,0.84,0.81,3.91,0.58,-20.36,0.22,0.13,0.09,7.56,-3.73,-10.18,2
-0.97,0.72,-0.36,1.81,12.69,-8.02,-0.4,-1.11,0.36,-11.72,4.49,4.06,0.52,-0.62,0.54,-22.71,9.94,25.47,2
0.08,0.57,0.24,2.79,7.81,12.0,-0.4,-0.36,0.81,-16.11,0.09,-9.13,-0.23,-0.62,-0.96,17.81,-2.76,-13.6,2
-1.72,-0.48,-1.11,4.74,-3.42,-0.21,0.35,0.09,0.36,-0.97,-3.81,-3.27,-0.08,-0.02,0.24,-16.85,9.45,11.31,2
-0.07,0.72,0.09,6.21,-3.91,1.75,0.05,-0.36,-1.44,1.47,-1.86,-31.59,-0.08,1.03,-0.06,-3.18,-4.22,-2.37,2
-0.07,-0.03,-1.56,7.18,7.81,-3.62,0.8,-0.66,-0.39,-3.9,-9.18,29.45,0.22,-0.62,0.09,-25.15,-4.22,16.19,2
-0.52,0.27,0.09,9.14,3.42,-0.21,-0.25,-0.06,0.66,13.19,-8.7,-19.87,1.12,-0.77,1.44,5.61,-17.41,-13.11,2
-1.12,0.12,0.24,11.58,5.37,-18.27,-0.55,-0.51,-0.54,5.86,-4.3,12.36,-0.23,0.13,0.84,-14.9,6.52,4.96,2
-0.52,-0.48,0.54,5.72,3.42,0.77,0.65,0.99,-0.54,0.49,3.51,-9.13,-0.53,0.43,0.09,-1.23,-1.29,-3.34,2
-0.97,-0.48,-0.36,8.16,-2.44,-6.06,-1.6,0.84,0.06,10.26,-12.6,10.89,-1.13,-0.77,0.24,2.19,1.15,10.33,2
-0.22,-1.08,-0.06,-6.98,7.32,-13.39,-0.55,0.69,0.21,5.37,-2.35,-23.77,-0.83,0.28,-0.51,-6.11,6.52,5.45,2
1.13,-0.03,0.84,-3.07,-4.4,11.51,-0.25,-0.06,0.66,-7.32,3.02,13.33,-0.98,0.13,0.09,-5.13,-11.55,-31.66,2
-0.67,-0.18,-0.51,-2.09,-11.23,-19.25,-0.85,-0.36,0.06,-14.16,1.07,-0.83,-0.38,0.28,-0.81,-24.67,-8.62,30.35,2
-0.97,-0.03,0.09,15.0,-10.74,-7.04,-1.45,-0.51,-0.54,-6.35,8.88,-16.45,-0.23,0.88,0.54,18.3,-0.32,-13.6,2
-0.07,0.27,0.54,1.81,-0.0,-9.48,-0.4,-0.66,-0.39,10.74,-22.37,16.75,-0.08,0.28,-0.06,3.65,7.99,0.08,2
-0.07,-0.48,-0.66,-6.98,7.81,-9.48,-0.55,-0.51,-0.09,-4.39,1.56,-9.13,0.97,0.13,1.14,-0.25,-1.29,2.52,2
0.98,0.57,-0.96,5.23,-8.79,9.07,0.2,0.24,-0.99,3.42,-10.65,11.87,-0.23,0.13,-0.21,10.98,9.45,-4.32,2
0.83,0.72,0.54,15.97,6.83,8.1,0.2,0.24,-0.54,0.98,22.07,-84.81,-0.38,-0.02,-1.71,2.19,-3.73,-18.48,2
0.53,0.57,0.24,-1.6,26.37,25.19,-1.0,-0.06,-0.54,-6.83,0.58,-10.59,0.52,0.13,-0.66,9.03,-9.1,-19.94,2
-0.52,0.72,0.84,-20.16,7.32,38.86,-0.4,-0.36,0.06,6.35,-27.74,139.31,0.52,0.13,-1.41,-31.99,27.03,127.52,2
-0.07,-0.78,0.54,-42.13,-15.63,-210.65,0.2,-0.06,1.41,15.63,-2.84,-158.05,-0.83,1.48,0.24,-116.95,46.56,261.31,2
2.63,0.12,1.89,-152.48,52.73,336.71,1.4,0.99,0.66,61.53,-81.45,174.47,0.37,0.73,-0.51,61.27,-9.1,-79.03,2
4.28,-0.63,1.89,-74.85,32.22,595.5,1.85,3.69,2.46,-26.85,-259.18,1018.16,0.52,2.38,1.89,-14.9,-95.04,-331.96,2
6.23,-1.98,5.94,30.13,4.39,24.21,1.25,6.09,6.51,-54.2,41.11,-32.08,1.42,3.13,0.54,-51.52,25.07,36.21,2
7.28,-5.73,8.19,26.72,78.12,110.63,0.05,9.09,11.46,72.27,21.09,6.99,3.52,3.58,2.49,20.74,20.68,67.46,2
5.93,-5.73,9.39,-25.04,53.22,-3.62,-0.25,4.74,14.01,27.35,35.74,97.32,4.27,5.08,4.74,47.11,43.63,-93.19,2
4.13,-1.68,9.09,-383.93,117.19,-1132.04,-0.55,2.19,13.56,87.89,-160.55,-8.15,3.97,4.03,3.54,-150.64,97.83,306.23,2
-0.52,-3.03,6.99,23.3,5.86,4.19,-1.75,1.44,7.86,-9.76,-3.81,-79.44,1.72,2.68,2.64,44.67,-15.45,-95.14,2
-1.12,-1.38,7.74,-30.41,-4.88,16.4,-1.15,0.09,6.96,-42.48,-15.53,14.8,-1.43,3.13,2.34,114.49,-56.96,-243.09,2
-0.97,-1.23,4.44,-47.99,-62.01,-382.53,-3.25,0.09,6.96,47.85,137.3,-545.26,-0.38,3.28,0.69,5.12,-51.1,167.56,2
1.43,-2.13,8.49,145.37,-0.49,134.07,-4.3,2.19,5.91,-41.01,63.57,7.48,0.22,2.68,3.09,-135.51,-0.8,-235.28,2
-0.22,-6.93,11.34,-11.86,74.71,230.26,-5.8,3.24,7.56,64.94,-36.04,233.06,-0.38,3.28,3.24,-121.35,-35.96,-118.58,2
-1.72,-6.33,9.54,-70.45,-12.21,-13.88,-7.15,1.44,7.86,46.88,118.75,-285.01,0.52,4.18,4.59,2.19,68.04,22.54,2
-2.62,-3.48,5.64,-293.6,123.53,178.99,-4.45,0.09,5.76,84.96,179.29,-291.35,0.97,3.43,3.39,229.73,-51.1,556.23,2
-2.62,-0.78,1.59,1.32,10.25,-29.5,-4.45,-1.41,2.01,-3.42,-2.84,3.08,-0.38,0.73,-0.51,18.3,-3.73,-33.62,2
-1.72,-0.78,0.84,4.74,-8.79,-9.97,-1.45,-0.81,1.71,12.7,3.02,17.73,-0.98,0.88,1.14,-0.74,10.91,6.91,2
0.08,0.12,-0.06,10.11,-0.49,-1.18,2.0,0.09,0.81,-12.21,9.86,-31.1,-0.23,0.13,1.14,14.89,16.29,34.26,2
0.38,-0.03,0.09,3.77,-10.26,-30.48,-0.85,-1.11,0.06,-9.76,-6.25,-12.06,-0.38,1.48,0.69,-6.6,-4.71,3.98,2
-0.67,-0.18,0.69,4.25,-0.49,-4.6,-0.25,0.24,0.21,0.98,7.42,0.64,0.37,0.73,-0.06,-10.99,0.17,17.17,2
0.38,-0.48,0.09,14.02,5.37,4.19,0.05,0.09,-0.69,-3.9,7.91,-12.06,0.37,-0.02,0.69,1.7,5.06,9.35,2
-0.07,-0.03,-0.36,7.18,3.9,0.77,-0.4,0.84,-0.39,0.0,-3.81,-6.68,0.52,-0.92,0.54,4.63,-6.18,-2.37,2
0.83,0.27,-0.66,7.67,3.42,-5.58,-0.4,0.84,-1.14,-15.14,0.09,-4.73,-0.98,0.13,1.14,-3.18,5.06,12.28,2
0.83,0.27,-0.36,-0.63,3.9,1.26,0.35,-0.36,-0.69,-14.65,2.05,3.08,-1.43,0.43,-0.21,-2.69,9.94,18.63,2
-1.72,-0.78,-1.86,0.35,1.95,1.26,-0.25,0.24,-0.54,3.42,2.05,1.13,-1.43,0.43,0.84,7.07,-20.34,9.84,2
-1.57,-1.38,-1.71,-1.6,3.42,7.12,0.2,0.24,-0.54,3.42,-4.3,-8.15,0.52,-0.17,-0.21,-10.51,7.5,7.89,2
0.98,-0.18,0.24,0.84,-6.35,-1.67,-0.85,-0.66,0.81,7.33,-11.63,0.15,-0.83,0.73,-0.51,12.44,-0.8,-21.9,2
-0.07,-0.48,-0.66,1.32,-0.0,-12.41,0.35,0.09,-1.44,4.88,-6.74,1.13,0.82,1.03,-0.51,-15.88,21.66,29.37,2
-0.52,-0.48,0.54,-2.58,-0.49,3.21,0.2,0.24,0.21,-2.93,-2.84,-1.31,-0.53,-0.17,0.09,-2.69,-5.69,10.82,2
0.83,0.27,0.09,7.67,0.97,12.0,0.35,0.09,-0.39,1.47,-8.7,-2.78,-0.53,1.63,0.09,11.96,-4.22,0.08,2
-1.12,0.87,-0.96,6.21,-17.09,-9.97,0.05,0.09,-0.39,-0.49,11.81,-0.83,-0.23,-0.17,0.54,2.68,1.15,13.75,2
0.38,0.27,-0.66,-2.09,-4.88,-2.65,0.95,0.69,0.21,2.93,12.79,2.1,-0.98,-0.17,-0.21,1.7,-7.64,-3.34,2
-1.72,-0.03,0.09,1.32,-4.4,-6.06,0.65,-0.06,0.21,-1.95,5.95,-2.29,0.37,-0.47,0.24,-12.46,14.82,19.12,2
-0.67,0.57,0.69,-0.63,-0.98,19.33,0.35,0.09,-0.69,1.47,6.44,4.06,-0.08,-0.47,0.69,-1.72,11.4,-27.27,2
-0.67,0.57,-0.51,3.28,-0.98,-4.11,-0.55,0.24,0.96,12.7,-1.86,-10.1,0.22,0.13,0.54,-6.11,7.01,0.56,2
0.38,-0.48,0.09,-10.88,-5.37,2.72,0.2,0.24,-0.54,-0.49,4.98,20.66,0.97,-1.37,0.09,3.65,13.84,-0.9,2
-0.67,0.12,0.24,0.35,3.9,-1.67,-0.55,-0.06,0.21,-0.49,-0.88,-19.38,0.22,0.13,-0.21,2.19,9.45,-3.34,2
0.08,0.12,-0.96,-6.0,-4.4,0.77,0.2,-0.81,-0.09,1.95,-2.35,1.62,-0.38,0.28,-0.51,-9.53,7.01,-0.41,2
0.98,0.12,-0.96,3.77,14.16,-2.16,0.65,-0.51,-0.99,-2.93,-10.16,-2.29,0.37,0.73,-0.06,-2.69,2.13,0.08,2
0.08,-0.63,-1.71,2.3,-13.19,8.58,0.65,0.24,0.96,-7.81,6.44,1.62,-2.03,0.73,1.44,-15.39,5.06,0.08,2
0.08,0.57,-0.51,-1.6,-0.98,-3.14,-0.4,0.39,0.06,4.88,0.09,10.41,-0.53,-0.92,0.54,17.81,3.59,-4.81,2
-0.22,-1.08,-0.51,4.74,-3.91,-5.58,0.35,-1.41,-0.39,2.93,-15.04,8.94,-1.43,0.88,-0.96,-9.04,0.66,14.72,2
-0.22,0.12,-0.06,13.53,-2.44,3.7,0.8,0.39,1.26,8.79,-0.4,-17.43,0.82,-0.77,-0.51,-13.44,-10.57,-10.67,2
-0.07,-0.03,-0.36,-0.63,-0.49,-1.18,-0.55,-0.06,-0.54,-5.86,4.0,3.08,0.37,1.03,0.69,4.14,-5.2,11.31,2
-0.22,-0.18,-0.51,-0.14,-6.35,0.28,-0.55,0.69,0.66,-2.44,3.02,-7.17,1.42,-0.17,-0.66,4.63,2.13,3.01,2
0.38,-0.78,-0.66,2.3,7.32,10.54,0.65,-0.81,0.66,-5.86,-4.3,-13.03,-0.08,0.28,-0.51,-2.69,-2.76,12.77,2
0.83,0.27,-0.36,-1.6,-2.93,4.68,0.95,0.24,-0.99,11.72,-6.74,14.8,-0.83,0.28,0.69,-1.23,-8.13,-6.27,2
-0.97,-0.78,0.84,-10.88,-0.0,9.07,1.4,0.24,1.41,-1.95,13.28,-8.15,-1.43,0.13,0.54,1.7,-4.22,17.17,2
-0.97,0.27,0.09,-5.02,-7.81,-1.18,-0.85,1.29,0.36,-11.72,-2.84,14.8,-0.08,-0.02,-0.06,0.72,-11.06,-5.78,2
0.38,0.27,1.59,12.07,6.35,-14.37,0.2,-0.51,0.96,-13.18,5.95,-25.24,-0.23,0.43,0.54,-3.18,-13.5,-12.13,2
-0.07,-0.03,-0.36,-7.95,14.16,65.71,0.2,1.74,0.96,20.51,0.09,-11.08,-0.08,-0.47,-0.06,59.32,-19.36,-95.14,2
0.98,-0.63,0.69,-2.58,1.46,86.22,0.35,0.39,1.26,0.98,4.0,27.01,0.82,0.73,0.24,18.3,-5.69,-4.32,2
-0.07,1.47,0.09,8.16,-13.67,-71.98,0.35,-0.36,-0.39,4.88,19.62,-45.75,-0.98,0.88,0.09,-36.38,6.03,43.53,2
-1.57,0.57,-0.06,82.38,17.09,291.3,1.4,-0.51,0.21,-33.69,64.55,-171.72,0.97,-0.17,0.84,112.54,-55.98,-236.25,2
0.98,0.87,1.89,65.78,66.89,238.08,0.35,-1.11,0.81,-90.33,-123.44,762.85,-0.08,-0.77,-0.51,-76.91,66.09,334.06,2
1.43,-0.18,7.44,0.35,21.48,-363.49,-1.0,0.99,3.66,38.58,-60.94,129.55,0.97,0.13,1.59,-611.09,169.12,1074.72,2
2.03,-3.48,16.29,4.25,-10.74,56.92,-2.2,3.99,4.86,10.26,2.05,-83.34,-0.23,2.68,1.59,34.42,1.15,9.84,2
-1.72,-12.18,26.49,-4.05,54.69,83.78,-6.25,4.44,6.66,36.62,19.62,67.53,1.72,2.38,4.14,-23.2,5.06,11.31,2
-4.42,-7.23,17.64,-12.35,35.64,-112.51,-3.85,2.49,9.06,-37.6,30.85,98.78,0.97,3.13,4.59,19.28,-19.85,31.81,2
-1.57,-3.78,10.14,93.61,-200.69,989.97,-3.85,0.69,7.11,49.81,65.03,-713.23,2.32,2.83,6.24,-22.22,-27.66,-159.1,2
0.98,0.12,6.24,13.53,-4.88,-129.11,-2.2,-0.51,4.41,-8.3,1.56,-2.78,0.52,2.38,1.59,-70.56,44.12,164.63,2
-0.22,-0.18,4.59,-3.56,-6.84,-73.94,-1.0,-1.26,4.11,14.16,-6.74,-139.01,-1.58,1.78,0.99,29.53,-11.06,-63.89,2
-1.12,0.12,0.69,-27.97,-58.6,220.99,-1.45,0.24,2.16,-43.46,41.11,320.95,-0.53,1.63,0.84,25.14,2.13,123.61,2
-0.52,-0.78,-0.36,-6.49,38.57,-68.08,-0.55,-0.06,1.41,69.83,-50.2,49.47,-0.83,1.03,1.44,-444.59,218.43,1043.53,2
-0.52,-0.78,1.59,60.41,108.4,48.62,-1.6,1.59,0.36,-64.45,-75.59,236.97,0.52,0.13,0.84,-1.72,-29.12,-331.96,2
-0.97,-0.03,1.29,10.6,-26.37,36.9,-3.7,-0.36,1.26,-2.93,-35.55,51.42,-1.13,2.53,2.19,83.73,20.68,-2.37,2
-1.27,-1.98,1.59,12.07,-42.48,199.5,-1.0,1.44,1.71,56.64,-39.46,-26.22,1.42,1.63,3.39,-131.11,27.52,78.2,2
-0.22,0.12,0.69,204.45,-334.96,-464.56,-1.45,-0.51,2.46,-338.87,-496.0,773.1,0.37,1.03,4.29,84.71,-58.42,-639.57,2
0.38,-0.78,0.84,-7.95,-7.81,0.28,-0.25,0.69,-0.09,-0.49,1.56,-17.92,-0.53,-0.17,0.09,6.58,-20.34,-38.5,2
-0.07,0.27,1.59,-8.44,2.44,21.28,0.2,0.69,0.66,4.88,4.0,5.03,-0.53,-0.62,0.09,-0.74,-4.71,-9.2,2
-0.07,-0.48,-0.36,-0.63,-1.95,1.75,0.2,-0.06,0.21,-3.9,-2.35,5.03,-0.83,0.28,-0.51,-8.06,0.66,7.89,2
1.88,-0.63,-0.51,18.9,-6.84,88.17,-0.4,0.09,-0.39,5.86,1.07,-14.99,-0.23,0.13,-0.96,-12.46,-1.78,-4.81,2
-0.07,0.27,-0.36,2.3,2.44,6.14,-0.4,0.39,0.81,2.93,-11.14,12.85,-0.83,-0.47,0.99,32.95,-9.1,-25.31,2
0.08,0.12,1.14,-4.05,-3.42,-20.71,0.35,-0.66,1.56,0.98,-4.79,-11.57,-1.13,-0.77,0.99,-27.11,6.52,57.21,2
-0.52,0.27,0.09,15.0,13.18,10.05,-0.55,-0.06,0.21,3.42,0.09,1.13,0.22,0.43,-0.21,16.84,-0.8,-26.78,2
-0.07,-0.48,0.09,-0.63,6.35,0.77,0.05,0.39,0.06,-4.88,-11.63,0.64,-0.23,1.18,0.84,2.19,4.57,1.54,2
-0.52,-0.03,0.54,15.97,13.67,7.61,-1.45,-0.51,0.21,-1.95,-5.77,9.92,2.02,-0.77,-0.81,-15.88,15.31,11.79,2
0.38,-0.03,-0.36,2.3,3.42,-3.14,-0.85,-0.36,0.06,4.4,-3.33,12.85,1.57,0.73,-1.11,4.14,-13.01,-20.43,2
0.53,0.87,-0.06,9.63,-6.84,-15.83,1.25,1.29,-0.69,1.47,-3.81,-17.43,-0.08,-0.47,-0.06,-2.69,-5.69,9.35,2
1.88,-1.08,0.24,9.14,-7.33,3.7,0.8,0.39,-1.44,-3.42,-1.86,-15.96,0.37,-0.47,-0.51,4.63,0.17,-39.96,2
0.38,0.27,-0.36,15.0,-1.95,-4.11,0.8,0.09,-0.39,1.95,-8.7,17.73,1.12,-0.77,-0.06,-22.22,17.26,58.67,2
0.83,-0.78,0.84,10.11,11.23,30.07,0.65,-1.26,-0.09,8.79,14.25,-35.49,-0.23,0.43,-0.21,33.44,-8.62,-52.66,2
-0.07,-0.03,-1.56,-4.53,1.95,-0.21,0.35,0.09,1.26,-9.76,2.53,12.36,0.22,-1.67,-0.21,-12.95,-2.76,23.51,2
-1.12,0.12,-0.51,5.23,13.18,-1.67,0.05,-0.36,0.81,0.0,0.58,-2.29,0.82,0.73,0.99,5.61,8.47,-4.32,2
0.83,-0.03,0.09,6.21,-5.37,8.58,0.2,1.44,-0.99,-8.3,-8.7,-14.5,0.52,-0.62,0.84,-13.44,9.45,6.42,2
-0.22,0.57,-0.06,7.18,-0.98,10.05,-0.4,0.09,-0.69,10.74,-3.81,15.78,-0.38,-0.77,1.44,-0.25,-18.87,-12.62,2
0.08,2.82,-0.06,-11.37,-4.4,0.77,0.2,-0.06,0.21,-5.86,2.53,-21.82,0.37,0.73,-0.06,-3.67,6.03,3.01,2
0.83,0.27,-0.36,-6.98,7.81,7.61,0.35,-0.36,-0.39,1.47,-18.46,25.05,0.82,1.48,0.24,0.72,-7.15,-8.22,2
-0.52,1.47,-0.36,-3.07,9.28,-8.02,-0.55,-0.81,0.66,-5.86,-1.37,-30.61,-0.23,0.88,-0.96,2.19,7.5,22.05,2
0.83,0.27,-0.36,-3.07,-3.42,1.26,0.05,0.39,0.06,6.35,-3.81,8.45,-1.73,0.43,-0.21,0.24,-2.27,-3.83,2
1.13,0.27,-0.66,3.28,3.9,2.72,-0.85,-1.11,-0.39,6.35,-0.88,1.13,-1.43,-0.17,-0.96,11.96,-9.1,-2.85,2
-0.97,0.72,0.09,-3.56,8.3,2.24,-1.15,1.29,-0.39,-4.39,-3.33,17.24,0.22,0.13,0.84,-16.36,3.59,8.87,2
0.38,2.22,-0.36,5.72,-4.4,-6.06,1.25,0.09,0.81,-0.49,-2.84,2.59,-0.08,-1.07,-0.06,-3.18,1.15,-9.69,2
0.83,-0.78,0.54,0.35,0.97,-3.62,-0.4,0.39,-0.69,4.4,12.3,-12.54,-0.98,-0.92,1.59,18.3,-0.8,-3.34,2
-0.07,0.72,0.54,13.04,-4.88,0.77,-0.85,0.39,-0.69,5.37,-0.4,6.01,-0.08,-0.47,-0.06,7.07,7.01,-4.81,2
-0.52,0.27,-0.66,9.14,5.37,1.75,-0.25,-0.51,0.66,5.37,-5.77,-0.83,-0.98,-0.92,0.84,2.19,-0.8,6.42,2
-0.07,1.17,1.29,8.16,8.79,-0.21,0.35,-0.36,0.81,0.0,-5.77,4.55,-0.53,-0.62,0.84,7.07,-5.69,1.05,2
0.98,-0.18,-0.96,9.14,9.76,-7.53,1.85,-0.51,-0.09,3.91,1.56,-9.61,-0.53,0.88,0.54,1.7,-11.06,-5.78,2
-0.97,-0.03,0.09,15.97,-3.42,17.37,1.4,-0.81,0.96,-9.28,-7.23,-10.1,0.82,0.28,0.69,11.96,-13.99,-21.9,2
0.38,0.27,0.09,-13.81,-1.95,72.55,-0.25,0.24,1.41,13.19,-9.67,27.01,-0.08,-1.07,-1.56,17.81,-10.08,-21.9,2
0.53,0.12,0.24,-8.44,8.3,-17.78,0.8,0.09,0.06,3.91,-1.37,-7.17,-0.53,0.88,0.54,-51.52,26.54,113.85,2
1.43,2.07,1.44,-2.09,-9.77,-65.64,-0.25,-0.51,1.41,-12.69,16.69,-62.35,-0.83,0.28,0.24,-44.2,43.63,124.59,2
-1.12,-0.18,-0.06,85.8,-5.86,174.6,-1.0,0.24,-0.54,-35.64,96.77,-313.33,-1.58,1.48,0.69,88.62,-68.68,-161.54,2
-1.27,-0.48,1.59,126.81,74.22,367.47,-0.55,-0.51,0.66,-155.27,-114.17,827.79,-0.83,0.28,2.19,39.79,49.49,119.22,2
-0.07,-1.23,3.69,-2.58,110.84,-0.21,-3.25,-1.41,5.76,195.31,-109.28,298.0,-0.23,3.13,1.59,-827.89,232.11,1074.72,2
0.53,-4.98,4.29,-22.6,-8.3,-93.47,-4.0,-1.41,13.41,-9.28,18.65,1.13,1.12,4.78,3.99,-100.84,23.61,12.77,2
1.43,-4.53,3.09,40.39,35.15,-52.45,-0.55,0.69,27.36,-125.0,171.48,-319.18,1.72,7.33,5.94,-35.41,16.77,32.3,2
0.38,-4.68,3.24,80.43,23.44,28.11,4.25,2.49,21.21,3.91,81.15,-4.73,2.17,6.28,5.19,17.33,-31.08,-139.57,2
0.83,-5.43,3.69,113.14,-141.6,-648.64,1.85,2.94,12.81,4.4,77.24,410.31,2.32,7.18,5.49,-213.14,-22.78,288.65,2
0.83,-3.93,3.69,-24.07,9.76,80.85,3.05,-0.51,8.31,14.65,-29.2,106.6,2.47,4.93,3.84,-936.29,884.45,1074.72,2
3.23,-2.73,3.69,-25.04,-24.42,-237.51,2.3,-0.81,7.11,26.37,5.95,-123.87,1.72,4.48,3.09,-225.35,104.66,367.75,2
2.48,-2.43,2.79,-88.03,-54.69,-201.38,2.0,1.59,3.51,18.56,-127.35,617.83,3.67,1.93,1.89,-66.17,32.89,97.73,2
2.03,-0.03,0.54,-128.56,53.22,-193.08,1.4,2.19,0.66,84.47,-15.04,396.15,2.77,1.48,1.44,-728.77,246.75,1074.72,2
1.88,1.32,0.24,36.97,-38.58,-292.2,1.85,2.19,-1.29,-12.69,45.99,-34.03,1.12,0.28,2.19,-113.04,36.79,186.11,2
-0.22,2.82,-1.26,-60.69,98.63,323.04,3.65,3.09,1.26,20.02,-0.88,75.83,3.67,0.43,5.64,168.69,-86.25,-76.58,2
-1.12,2.07,0.69,-325.82,174.31,155.07,-1.75,0.69,-0.99,-1.95,-129.3,179.35,1.57,-1.52,3.54,189.69,98.32,40.6,2
0.53,0.87,-2.46,-518.69,269.53,-2403.04,-2.2,-1.26,-2.04,-177.24,233.0,1018.16,0.52,-2.72,1.14,-309.82,-74.05,177.32,2
-1.27,0.27,-0.36,5.72,7.81,12.0,-1.45,0.24,0.21,3.91,-1.37,-0.83,0.22,-0.62,-0.66,8.54,-2.76,-29.22,2
-0.52,-0.03,0.09,7.67,6.35,-12.9,-1.75,0.69,-1.29,0.49,-0.88,14.31,-0.53,1.63,-0.21,0.24,17.75,13.26,2
-0.67,-0.63,-0.06,-7.95,-8.3,-8.02,-0.4,0.84,0.36,-4.39,0.58,-21.82,0.22,0.13,-0.66,-1.23,2.61,13.75,2
0.38,0.72,-0.36,9.63,0.49,-6.06,0.65,-0.06,-0.54,-4.39,2.53,-9.13,2.17,-0.17,0.09,-12.46,-3.25,28.4,2
-0.52,-0.03,-0.36,-9.91,-7.81,18.35,0.05,0.09,0.06,9.77,-6.25,-13.03,-0.53,-0.62,0.54,-9.04,-5.2,0.08,2
0.83,-0.48,-1.11,7.67,0.49,-4.6,1.25,0.84,-0.39,-8.3,0.58,-8.15,-0.83,1.48,-0.51,-4.65,14.33,9.35,2
-0.07,-0.48,0.54,-0.63,0.97,1.75,-1.45,0.24,0.21,3.91,1.07,-8.64,1.72,-1.37,0.84,3.17,7.5,3.49,2
0.38,-0.48,0.09,16.46,-10.74,1.75,-0.25,0.24,0.21,-0.49,-7.23,32.38,-0.23,-0.92,1.89,11.47,-11.55,-21.9,2
-0.52,-0.03,0.54,11.09,-11.23,-8.51,-0.85,0.39,-0.39,-5.86,2.05,-5.71,-0.38,-0.47,0.99,-1.72,3.59,-5.29,2
1.43,0.57,0.24,9.14,7.32,3.21,-0.25,0.69,0.21,8.3,3.51,7.96,0.22,0.43,0.54,13.42,-7.64,-14.08,2
-0.07,-0.03,0.54,16.46,-8.3,6.63,-0.85,0.09,-0.39,-2.44,0.09,8.45,1.42,0.43,0.09,1.21,-9.59,-0.41,2
-0.52,0.27,-0.36,0.84,-5.86,-8.02,0.05,-1.86,0.06,-2.93,3.02,6.5,0.37,0.73,-0.51,-13.92,-2.76,11.79,2
-0.52,-0.03,-0.66,3.77,3.42,8.1,0.8,0.09,0.06,-7.32,-9.18,-0.83,0.52,0.88,0.54,4.14,8.47,5.94,2
0.38,0.27,-0.66,4.74,-9.28,-17.3,-0.4,0.39,-1.14,-5.37,9.37,-4.24,-0.23,0.13,0.09,-13.92,-0.32,18.63,2
-0.52,-0.03,-0.66,5.23,-7.81,-2.65,-0.25,-0.06,-0.99,0.98,3.51,-14.01,-0.83,1.03,-0.81,-3.18,-7.64,0.56,2
-0.67,-0.63,-1.26,2.3,-5.37,-2.65,-1.0,0.99,0.66,0.98,1.56,7.96,0.52,-0.17,0.54,3.17,1.64,14.24,2
0.08,-0.18,-0.51,6.21,-6.35,-0.21,0.2,-0.06,-0.09,-11.23,4.98,-3.76,0.82,-0.02,0.24,-0.25,8.96,0.08,2
0.38,-0.78,0.84,6.21,-2.44,-11.92,-0.25,-0.06,-0.54,0.98,8.88,10.89,-0.08,0.73,0.24,4.14,15.31,5.94,2
-0.52,0.72,-0.36,10.11,-5.37,-8.99,-1.15,-0.36,-0.69,-7.32,-5.77,4.06,-0.08,-0.02,-0.51,2.68,5.06,6.42,2
1.88,0.57,-0.51,5.72,0.49,10.54,-0.55,0.69,0.66,14.16,0.58,5.52,1.12,-0.02,-0.06,-4.16,-8.13,3.98,2
1.13,0.27,-0.36,-6.0,-0.98,7.12,0.05,-0.36,0.36,-3.42,-4.3,-12.54,1.42,0.88,-0.21,-19.29,7.5,21.07,2
0.38,-0.03,-0.36,-6.49,-2.93,6.63,0.05,0.84,0.06,7.33,0.09,8.94,-0.23,0.43,0.09,2.19,-2.76,-3.83,2
-0.07,-1.23,-1.11,1.32,-4.88,5.65,0.8,0.09,0.81,0.0,-0.4,-10.59,-0.23,-0.17,0.09,5.12,-6.66,2.03,2
0.98,0.12,0.24,15.97,-2.44,6.14,0.65,-0.51,-0.09,-6.35,-2.35,3.08,1.57,-0.47,-0.81,32.46,-10.08,-7.25,2
0.38,0.72,0.09,9.63,12.69,-14.37,-0.85,-0.36,-0.69,9.77,-2.35,-8.15,0.22,-0.62,0.54,-7.58,11.4,18.14,2
1.43,0.12,0.24,-5.51,-3.91,12.49,1.4,0.24,-0.54,-7.32,-17.0,7.48,0.37,-0.02,0.69,3.65,-0.32,-12.13,2
0.08,1.77,-1.26,0.35,-6.35,-5.58,-0.85,0.09,-1.14,9.28,10.83,-14.01,-0.83,-0.47,0.69,-1.23,-2.76,1.05,2
0.83,0.72,-0.36,1.32,-1.95,-11.92,-0.25,-0.06,0.66,-4.88,-3.33,5.03,0.22,0.43,-0.21,9.03,-0.8,9.35,2
-0.52,-0.03,0.09,-9.42,3.42,5.65,0.65,0.24,-0.54,5.37,-8.21,1.13,0.37,-0.47,-1.56,2.19,-8.13,-3.34,2
0.83,1.17,-0.66,-14.79,2.44,10.54,-2.05,-0.36,0.81,-11.23,-8.21,-1.31,1.12,-0.77,0.99,-0.74,-4.71,4.47,2
0.83,-0.03,0.09,16.95,-0.98,-4.6,0.95,-0.51,1.41,-0.97,12.3,4.06,-0.83,0.73,-1.56,17.81,5.54,-0.9,2
-2.17,0.27,-0.36,14.51,-9.77,-5.09,-0.4,-0.36,-1.14,-7.81,6.44,-23.77,0.37,0.28,0.69,14.89,-0.8,-3.83,2
-0.07,-0.03,0.84,4.74,-0.98,38.86,0.05,0.39,1.26,0.98,0.58,32.38,-0.08,0.28,1.44,15.86,-17.89,-45.82,2
0.83,-0.78,0.54,15.97,-1.95,-45.62,0.05,0.09,-0.69,7.33,-12.6,26.52,-1.13,0.28,-0.06,-56.4,21.66,118.73,2
0.98,-1.38,-0.06,6.7,-11.72,-55.87,-1.0,-0.81,1.41,-5.86,7.42,-77.0,-0.53,1.63,1.14,-18.81,5.06,49.88,2
0.53,-1.08,-1.26,17.93,34.67,99.4,-0.55,-0.06,0.21,11.23,21.58,-94.58,-0.53,1.18,1.14,79.83,-44.75,-202.56,2
-0.22,-0.18,0.24,-53.85,30.76,-130.58,0.05,-0.36,0.36,15.14,-62.41,115.39,-0.08,-0.02,0.24,105.22,-75.51,-258.71,2
-2.62,-0.03,3.69,-77.78,-63.97,-94.93,-1.45,-0.06,1.41,-6.83,184.66,-1036.47,-0.53,1.93,1.59,217.52,-55.0,-415.94,2
-2.92,0.27,6.84,11.58,0.97,-0.69,-2.65,0.99,2.91,96.19,-72.66,-134.61,0.82,1.48,1.44,-251.23,-31.08,-74.63,2
0.38,-2.73,13.44,-3.07,5.37,7.12,-3.85,2.19,1.71,-4.88,39.16,-54.05,-0.98,2.38,1.59,-6.6,-6.66,22.05,2
3.23,-4.68,16.59,-14.79,-2.93,6.63,-3.7,3.09,3.81,20.51,-2.35,47.51,1.42,2.68,3.39,-61.29,12.38,-7.74,2
4.28,-4.53,12.54,-1.12,12.21,-103.72,-3.25,4.59,5.01,52.74,24.51,-61.86,-0.08,1.03,2.19,-16.85,31.42,27.91,2
3.68,-0.78,8.34,-46.04,61.03,189.74,-1.6,5.04,3.81,-4.39,24.02,-59.42,-0.53,2.38,3.39,-10.02,29.96,63.06,2
1.58,-0.78,6.84,283.06,18.55,-10.95,-3.1,2.19,4.41,-180.17,-99.03,553.86,-1.43,2.38,3.84,644.77,-351.88,-920.82,2
-0.67,0.12,5.04,-6.49,18.55,1.75,-3.25,0.09,4.56,12.7,9.37,-71.63,0.22,2.38,-0.06,-7.09,3.1,27.91,2
0.83,0.27,3.69,7.18,-1.95,-69.54,-1.15,1.59,4.11,-21.48,-15.04,89.51,0.52,3.13,1.59,-22.71,26.54,74.29,2
1.58,-0.48,2.49,58.94,-23.93,-99.81,0.65,0.99,2.46,-18.06,44.53,-184.42,0.82,1.48,0.99,48.09,-38.89,-98.07,2
2.18,-1.38,-0.06,-112.93,10.25,464.15,0.05,0.84,0.81,-21.97,47.94,87.55,1.12,1.48,0.69,326.41,-122.87,-499.92,2
-0.52,-0.48,0.54,244.49,89.35,-445.52,0.05,1.29,0.06,-162.11,132.91,210.11,-0.83,1.03,0.24,-556.89,88.06,485.43,2
-0.22,-1.08,-2.01,-46.04,55.17,95.01,-1.15,0.09,0.81,-23.92,-0.88,29.94,1.42,1.63,0.54,-73.98,-7.15,17.17,2
-1.12,-0.18,-0.51,-55.8,24.41,179.97,-1.0,1.74,0.96,-39.06,9.37,248.69,0.97,1.18,0.54,-92.54,9.45,-1.88,2
-2.32,-0.63,0.69,12.07,-5.37,-11.44,0.05,-1.41,0.81,-32.22,38.18,170.56,-0.08,1.03,0.99,-89.61,65.11,187.58,2
-1.27,-0.78,-1.11,-12.84,126.46,73.04,0.05,-0.66,1.26,-106.44,-8.7,132.96,0.37,-0.02,0.99,68.6,14.33,-80.0,2
-1.27,-0.03,-1.56,172.71,221.68,-2575.89,-1.0,-0.06,-0.54,-223.63,-7.23,168.12,1.12,0.73,1.44,-358.65,-55.49,24.98,2
0.38,0.27,0.54,-1.12,-8.3,-6.06,-0.25,0.99,0.21,-1.95,8.88,-5.71,0.97,0.13,-0.21,5.61,-10.57,-10.18,2
0.38,0.27,0.54,-0.14,8.79,1.75,-0.85,-0.36,0.06,8.79,1.56,-4.24,0.82,0.28,-0.81,-6.6,-6.18,-11.64,2
0.83,1.17,-0.36,7.67,-1.47,-9.48,-0.55,0.24,0.66,5.37,7.91,3.57,-0.08,-0.47,-0.06,-8.06,3.59,15.21,2
-0.07,-0.48,0.09,-6.49,8.3,13.95,0.05,0.39,0.36,1.95,-8.21,-6.2,-0.53,-0.62,0.09,9.51,0.66,3.49,2
0.83,0.27,1.59,-0.63,6.83,-19.25,-1.15,0.84,-0.39,3.91,-11.14,3.08,0.52,0.43,-0.21,-0.74,-3.25,-16.53,2
-0.22,-0.63,-0.96,0.35,0.97,0.28,0.8,0.09,-0.39,7.81,-1.37,-13.52,0.37,0.28,0.24,-15.39,10.43,20.58,2
1.88,-0.18,-0.96,1.32,1.95,0.28,-0.85,0.39,0.36,10.74,-10.65,-0.83,-0.38,-0.47,-0.06,-5.13,4.08,5.94,2
-0.67,1.32,-0.06,9.63,20.02,-0.69,-0.85,0.39,0.36,16.11,-12.6,2.59,1.42,0.43,0.54,-1.72,0.66,-5.78,2
-0.52,0.72,-0.36,9.14,-3.42,-5.58,0.65,-0.51,-0.54,-1.95,-2.84,-7.17,-0.23,0.43,-0.21,13.91,-9.59,-15.06,2
0.08,0.12,0.24,4.74,2.93,-15.83,-0.25,0.24,0.21,11.23,-0.88,9.43,-0.53,0.43,-0.21,-7.09,11.89,21.07,2
0.08,-0.63,-0.51,1.81,-9.77,1.75,0.35,0.39,0.06,-1.95,-9.67,1.13,-0.23,0.43,0.09,-5.62,-10.08,1.05,2
-0.67,-0.18,-0.51,2.79,-6.84,-3.62,1.7,-0.66,0.81,-3.42,-10.16,-10.1,1.12,0.73,0.69,8.05,-1.29,-17.99,2
0.83,-0.78,1.29,3.28,-4.88,4.19,1.25,-1.86,0.06,-2.93,6.93,-6.2,0.97,-0.92,-0.66,-7.09,4.57,18.14,2
-0.67,-0.18,-1.71,-3.07,-9.77,11.03,0.65,-0.06,-0.09,2.44,-10.65,-5.22,-0.83,0.73,-0.51,-5.62,-3.73,-10.67,2
-1.72,0.27,0.54,-3.07,7.32,0.28,0.05,0.09,-1.14,7.81,-9.18,-4.24,-0.53,0.43,0.09,2.68,-1.78,-15.06,2
-0.97,0.27,-0.36,-3.07,4.39,-3.14,1.25,0.39,0.81,10.26,10.83,-8.64,0.52,-0.62,-0.21,-16.36,7.99,39.63,2
-0.07,-0.03,-1.11,7.67,-7.81,7.12,0.8,0.84,-0.39,-4.88,-1.37,14.8,-0.08,0.28,-0.51,5.61,3.59,-17.01,2
-0.22,0.12,1.14,0.84,-2.44,-8.51,1.25,0.39,1.26,0.98,0.58,-0.83,0.52,0.13,0.09,12.44,4.57,-16.04,2
-0.07,0.27,0.84,1.32,-2.44,-12.9,-0.55,0.99,0.21,-5.37,8.39,-9.61,-0.23,0.43,-0.21,-9.53,-4.22,0.56,2
-0.67,-1.08,-0.96,8.65,11.72,0.28,0.2,0.24,0.66,6.84,2.53,13.33,-0.38,0.28,0.24,-13.44,1.15,10.82,2
-0.07,1.92,-0.36,-8.44,8.3,1.75,-0.4,0.09,-1.14,9.28,1.07,14.8,-0.38,-0.02,-1.11,7.07,-1.29,-8.22,2
0.38,-0.03,0.09,7.67,-3.91,-10.95,0.05,0.09,-0.69,0.98,1.56,-14.99,1.57,0.73,-0.51,3.65,-5.2,0.56,2
0.38,-0.78,0.54,7.18,4.88,-7.04,-0.55,0.69,-0.54,18.07,0.09,-10.59,0.37,0.73,-0.06,-9.04,23.61,11.79,2
-0.67,-0.63,-0.06,4.74,2.44,10.05,0.05,0.09,0.06,-3.9,-2.35,3.57,0.22,0.43,0.84,7.07,-4.22,-12.62,2
0.08,0.57,0.24,1.32,5.37,0.77,0.2,-0.06,0.66,4.4,6.93,-6.68,0.52,-0.17,1.59,6.58,7.99,-10.18,2
0.08,-0.18,-0.06,4.74,-6.35,-12.41,0.05,0.39,1.26,-4.39,8.39,-7.66,0.52,0.13,0.09,-9.04,5.06,5.45,2
0.83,-0.48,0.09,1.32,-5.37,-4.11,0.65,-0.06,0.66,-1.46,7.91,14.31,0.52,0.13,-0.66,-8.06,4.08,13.75,2
-0.22,0.57,-0.51,4.74,16.11,46.67,-1.15,1.29,-0.39,-4.88,-5.77,60.7,-0.98,0.43,1.14,40.28,-13.5,-87.81,2
-0.07,1.47,-0.36,-2.58,2.44,-2.65,-1.45,-0.51,-0.09,13.19,-22.37,43.61,-0.98,0.13,-0.66,-70.08,29.96,96.76,2
0.53,0.87,1.14,-12.84,-14.16,-74.42,-0.4,-0.66,0.81,7.81,-2.84,-31.1,0.22,1.18,0.09,-81.31,28.98,175.86,2
0.08,0.87,-1.26,-0.14,-21.0,-171.1,-0.55,-0.81,-0.09,4.4,15.23,-129.24,-0.53,0.13,1.14,-94.49,30.93,156.33,2
0.38,1.47,-1.11,6.21,-11.72,-6.55,0.05,0.09,-0.69,-29.3,67.96,-157.56,-0.98,0.88,1.14,21.72,1.15,8.87,2
-0.22,0.57,-2.01,-24.07,-64.94,-452.84,-0.25,-0.06,0.66,-88.87,80.66,-127.29,-0.23,0.13,-0.21,-84.72,77.32,378.98,2
-0.52,1.17,-0.36,205.91,89.84,-209.19,0.65,0.69,-0.54,-43.94,-55.57,643.22,2.02,0.28,3.24,415.28,-56.96,170.49,2
0.83,0.72,0.09,4.25,-5.37,75.97,-0.85,0.84,0.06,-2.93,13.28,85.11,5.62,-1.67,4.14,22.21,14.82,30.84,2
1.43,0.57,1.44,-22.6,-1.47,94.52,0.65,0.69,1.41,-1.46,42.08,-6.2,14.02,-2.27,5.79,1.7,45.09,94.8,2
1.43,0.87,-0.06,-64.59,28.32,-141.81,1.4,0.99,2.91,9.77,97.26,-40.38,12.97,-2.57,8.04,31.49,-11.55,3.01,2
1.88,0.12,-0.51,-82.17,-1.95,45.2,2.0,-0.66,1.56,-12.21,-52.64,220.85,10.42,-2.12,6.39,-61.78,2.13,135.33,2
1.58,-1.23,0.54,-221.33,333.49,-324.91,2.9,0.39,2.76,-176.27,101.66,-405.61,9.37,0.28,5.79,176.51,-90.16,313.06,2
-0.22,-1.38,1.14,11.09,2.44,37.39,1.25,-2.61,2.31,-2.44,23.53,-71.14,3.37,0.43,3.84,11.47,-110.18,65.51,2
0.08,-3.03,0.24,20.37,-29.3,-312.22,1.7,-2.91,2.31,23.44,68.94,-22.31,3.37,1.63,7.44,309.81,105.15,122.15,2
-0.67,-1.08,1.44,10.11,-34.67,-155.48,0.65,-3.81,2.91,-33.2,21.09,-190.77,-0.83,1.03,6.99,18.3,-203.44,-367.11,2
-0.67,-1.08,1.44,-5.51,-120.12,259.56,-0.55,-3.51,1.71,23.44,161.71,-714.69,-1.13,1.78,3.24,30.02,-103.34,-147.87,2
-1.27,0.27,-0.36,-4.05,-18.56,42.28,-2.8,-0.36,3.51,2.44,57.22,-83.34,-0.53,1.63,4.59,-220.95,159.35,671.95,2
0.53,-1.38,1.89,15.49,31.74,-99.33,-5.2,-2.61,2.76,-72.75,7.42,-42.33,-0.08,1.48,7.29,6.58,-17.41,-99.53,2
0.08,-1.38,0.69,-23.58,-0.98,-163.78,-3.7,-5.16,6.21,-3.42,-45.32,263.82,0.22,1.93,6.69,-26.13,8.47,127.03,2
-0.22,-0.18,1.89,201.52,82.03,643.84,-3.1,-4.26,4.11,-86.42,-165.92,182.77,1.12,2.08,6.24,3.65,-52.56,14.24,2
-1.87,-1.08,0.24,-146.62,594.72,-2387.9,-1.6,-4.11,1.26,-334.47,979.58,-2326.51,-0.23,1.18,5.64,-632.09,34.35,332.11,2
-0.07,-0.78,1.59,-2.58,-8.3,6.14,-0.55,-1.26,2.16,0.98,-0.4,3.08,-0.83,1.03,0.69,4.63,4.08,19.61,2
-0.22,0.12,-0.06,1.32,10.25,8.1,1.25,-0.36,2.76,-12.21,-3.81,13.82,-0.83,1.48,-0.51,7.07,-4.71,-10.67,2
-0.52,-0.03,-0.36,11.09,4.39,2.72,-0.55,-0.81,0.21,1.95,-11.63,-3.76,0.22,0.13,0.09,-10.02,14.33,27.42,2
0.08,0.12,1.44,-5.02,-10.26,13.47,-0.55,-0.81,0.21,-8.3,3.02,-13.52,1.12,-0.02,0.24,0.24,-13.99,-20.43,2
-0.67,-1.38,-0.51,-1.12,-3.42,-8.51,-0.25,0.69,0.21,-7.32,6.93,-5.71,0.82,0.28,0.69,9.03,6.03,18.63,2
1.13,1.17,-1.56,0.35,-3.91,-12.9,1.25,-0.36,0.36,-1.46,10.35,-14.01,0.37,-0.47,1.74,0.72,1.15,0.08,2
-0.07,1.17,0.54,13.04,6.35,-15.34,-0.55,0.24,0.21,-2.44,1.56,5.52,0.22,0.13,0.84,-12.46,3.59,24.98,2
-0.22,0.12,0.69,-2.58,11.23,4.19,0.2,0.24,0.21,0.49,-1.86,-7.17,0.52,0.13,0.84,2.68,-16.92,-4.81,2
-0.22,-1.08,-2.01,4.25,-26.86,-24.13,1.25,-0.36,1.26,1.95,2.05,-5.71,1.57,-1.07,-0.06,0.24,6.03,1.54,2
0.98,-0.18,-1.26,15.49,14.65,-6.55,-0.4,-0.66,0.36,-7.32,-7.72,-0.34,0.52,-0.62,0.84,-15.88,5.54,21.56,2
-1.12,0.12,-0.06,-1.12,6.83,10.05,-0.25,0.69,-0.54,12.21,-2.35,-5.71,0.82,-0.02,-0.51,10.98,1.15,-11.64,2
-0.07,-0.03,0.84,-4.53,-2.44,-14.37,-0.4,-0.66,-1.14,1.47,1.07,9.43,-0.38,0.73,0.69,5.61,6.03,-1.88,2
-0.52,-0.48,-0.36,9.63,13.67,-2.65,0.35,-0.36,0.36,-9.28,14.25,-21.82,0.52,0.13,1.59,-13.44,-1.29,3.98,2
0.38,-0.03,-2.31,1.81,1.95,11.03,-0.4,1.29,-0.39,3.42,-6.74,24.57,0.37,0.73,1.44,-3.67,7.5,18.63,2
-1.27,0.27,-0.36,10.11,10.74,15.42,0.2,0.24,0.21,0.49,4.0,-12.06,-0.53,-0.17,0.09,14.89,-15.94,-50.22,2
-0.52,1.47,0.09,-4.05,-8.79,-8.02,-0.55,-0.81,0.96,-4.39,-1.37,-7.66,0.52,-0.62,0.09,-13.44,6.52,26.93,2
-0.07,-0.03,-1.56,9.63,-3.91,5.65,-0.25,0.69,-0.09,1.95,-13.09,-5.71,-0.23,0.88,0.54,13.91,-13.01,-36.06,2
-0.97,-0.48,0.54,-1.12,5.37,-9.48,-1.45,-0.51,-0.09,2.44,2.05,-5.71,0.97,0.43,0.54,-18.32,11.89,38.16,2
1.13,1.92,-0.66,-9.42,-7.81,16.88,0.2,-0.06,0.21,0.0,5.95,1.13,-0.53,1.18,-0.21,11.96,-16.43,-28.24,2
-0.07,-0.03,0.84,9.14,-7.81,-12.41,-0.25,-0.51,0.66,-7.32,3.02,-10.59,0.52,-0.17,0.09,2.68,3.59,14.72,2
0.38,0.72,-0.36,3.77,-1.47,-11.92,-1.45,0.24,-0.09,4.4,4.0,6.5,-0.23,0.13,0.09,-5.62,17.26,21.07,2
-0.07,-0.03,-0.36,-7.46,9.28,12.0,-0.25,-0.06,0.66,-0.97,3.51,-9.61,-2.18,0.88,0.09,15.37,-7.64,-34.1,2
-0.67,0.12,0.24,2.3,-8.79,-19.74,0.95,0.99,-0.99,-16.11,-4.3,16.26,0.82,0.73,-0.51,-6.6,8.47,23.51,2
-0.97,1.17,0.54,-7.95,-0.0,3.21,0.2,0.24,1.41,-4.88,-3.81,-19.38,-0.08,-0.77,0.99,-6.11,-9.59,-19.46,2
0.53,1.32,-1.26,-5.02,-1.47,2.72,0.2,0.24,0.66,-1.46,2.53,3.57,0.52,0.43,0.54,-8.06,5.06,14.24,2
-0.67,0.87,-0.51,7.67,-4.4,6.14,0.35,-0.36,0.81,8.3,-3.33,12.36,-0.38,0.28,-0.06,-5.13,-1.78,2.03,2
0.83,0.72,0.54,0.35,-3.91,5.17,0.05,0.84,0.81,-10.25,-3.33,-7.66,-1.58,-0.02,-0.06,-3.67,-2.76,21.07,2
0.38,1.17,0.54,-4.53,0.49,10.05,-0.25,0.24,0.21,7.33,9.37,20.66,0.37,-0.02,0.69,5.61,11.4,-18.97,2
0.08,-0.18,-1.71,-9.91,7.81,-12.9,-1.75,0.24,0.96,-14.16,16.69,-17.43,0.52,-0.92,0.09,-26.62,9.94,33.77,2
-0.07,0.72,0.84,-6.98,6.35,65.22,1.85,-0.06,-0.09,3.42,4.0,10.41,0.22,0.43,0.09,23.67,-9.1,-45.33,2
0.08,0.12,-0.51,-6.0,1.46,-4.6,1.85,0.69,0.21,-8.79,-10.65,32.87,-0.98,0.13,0.09,-56.89,28.0,84.06,2
-0.07,-0.03,-0.36,16.95,5.37,-49.52,-0.25,0.69,-1.29,5.37,-1.37,0.15,0.37,1.48,-0.81,-12.95,-5.69,37.19,2
1.43,-1.08,0.69,8.65,23.92,74.5,0.8,1.29,-0.69,15.63,-29.2,253.57,-0.23,0.88,1.14,28.07,-10.08,-22.87,2
1.88,0.12,-0.51,-19.18,-21.97,-437.71,0.2,1.74,0.21,-27.83,8.88,235.01,1.12,-0.02,0.24,-106.21,103.69,562.09,2
0.38,2.22,1.29,-30.41,-88.87,-321.98,-0.4,-1.11,0.06,-7.81,173.43,-860.69,-0.08,-0.47,0.69,224.85,-101.88,-546.8,2
-1.12,0.12,1.14,8.16,2.44,-48.06,-2.65,0.24,-0.09,-66.89,44.53,-124.85,2.17,1.63,2.34,-135.99,163.26,420.49,2
-1.57,1.32,3.09,18.9,-1.47,-44.15,-5.2,0.09,2.01,12.7,31.83,2.59,2.02,1.03,2.49,48.09,-17.41,-61.45,2
-1.27,-1.23,2.49,21.34,-5.37,-88.58,-5.8,-3.06,4.11,-19.04,11.81,-28.17,1.72,1.93,4.89,-41.27,0.66,92.36,2
-0.97,-0.03,0.84,-28.95,41.5,-22.67,-6.55,-2.16,4.56,-36.62,66.99,-55.51,3.07,2.83,4.29,54.44,-15.94,-59.98,2
-1.57,-1.38,3.09,211.77,82.52,-59.78,-3.4,-1.56,4.41,15.63,-37.99,161.28,2.02,2.08,5.49,-48.59,17.75,36.21,2
-0.52,-1.23,2.79,7.18,-1.47,5.65,-2.65,-1.26,2.91,-488.28,1119.72,-2981.78,2.02,2.53,0.69,-1264.9,304.86,1074.72,2
-0.07,-1.68,3.24,-21.14,11.72,37.39,-3.1,-0.51,3.66,6.35,3.02,65.09,0.22,3.43,1.14,18.3,4.08,13.26,2
-0.22,-1.08,2.64,5.23,-23.44,-208.21,-0.25,-0.06,3.36,-23.44,36.71,-147.31,0.82,1.78,1.74,-45.17,-1.29,56.23,2
-0.97,-0.48,1.29,-93.4,52.24,225.38,-1.15,-0.66,2.01,7.33,49.41,-434.42,-0.53,1.18,1.14,174.55,-40.35,-181.08,2
-0.07,-0.03,1.59,-5.51,18.55,162.39,1.4,0.99,2.46,43.46,-210.84,657.38,-0.08,1.48,0.99,-97.42,-8.13,-143.97,2
0.38,-0.78,0.09,87.75,-5.86,11.51,0.95,2.49,2.91,-75.68,58.69,-8.15,0.97,2.38,1.14,-329.35,500.17,66.97,2
2.63,-0.63,3.09,12.07,29.3,70.11,-0.85,5.34,2.76,65.92,-19.44,119.78,0.82,1.78,2.94,82.76,-9.1,39.63,2
1.43,-1.08,1.89,-55.8,-13.19,-133.02,2.45,2.04,6.21,17.09,-14.07,-0.34,3.07,2.08,5.04,-103.28,17.75,178.3,2
2.18,-0.63,0.69,86.29,-33.2,-508.99,0.2,-0.06,4.86,7.81,59.17,-45.75,2.02,2.53,3.24,-13.44,2.61,189.04,2
-0.07,0.27,0.54,3.77,0.97,0.28,-1.0,0.24,1.41,21.97,253.51,-1063.81,0.82,1.48,0.69,-1588.14,323.41,1074.72,2
-0.07,0.27,0.54,11.58,-13.67,1.26,0.05,1.29,0.81,-1.95,-2.35,-28.17,0.37,-0.02,-0.51,-25.64,4.57,33.28,2
0.38,0.72,0.09,-2.09,9.28,-19.25,0.65,0.69,-0.54,-13.18,8.88,-25.73,-0.08,-0.02,-0.06,9.51,0.17,-11.15,2
0.38,0.27,-0.36,1.32,10.74,7.12,-0.4,0.84,0.36,1.47,1.56,25.05,-0.38,0.28,-0.51,10.49,3.59,7.89,2
-0.52,0.72,-0.66,-10.39,-11.23,1.26,-1.0,1.44,0.96,-2.44,6.44,12.85,0.82,-0.47,-0.51,7.56,1.15,-4.81,2
-0.07,0.27,0.84,6.21,-7.33,19.81,0.65,-0.51,-1.29,0.0,9.37,-47.7,1.42,0.13,-0.21,3.17,3.1,2.52,2
-0.22,0.57,-0.06,-4.53,-3.42,-2.65,0.35,-0.36,0.06,-5.37,-1.37,29.45,0.82,-0.47,1.74,5.12,7.99,5.45,2
-0.07,-0.48,0.09,11.58,-9.28,7.61,0.65,-0.06,-0.99,4.88,4.0,-18.89,-0.98,-0.62,0.09,-8.06,7.99,-15.06,2
-1.12,0.87,-0.06,6.21,-6.35,-0.21,0.65,0.99,0.66,-11.72,6.44,-10.59,0.82,-0.02,0.69,-11.48,3.59,31.81,2
0.53,-0.18,0.24,-5.02,-2.93,20.3,-0.55,-0.51,0.96,1.47,3.02,14.8,0.52,-0.92,-0.21,3.17,-11.06,-30.2,2
0.38,-0.78,-1.11,0.84,-8.79,-6.06,-0.55,0.24,-0.54,-9.28,-1.86,-20.36,1.42,0.13,0.54,-7.58,7.5,7.4,2
-0.67,-0.63,0.69,-10.88,-3.91,-2.65,-0.4,-1.11,-1.14,-6.83,-4.79,27.01,0.37,-1.07,0.69,-7.58,12.38,26.44,2
0.38,-0.03,-0.36,-0.63,2.44,5.65,0.05,-0.36,0.06,-4.88,2.53,-45.75,-0.83,1.03,0.69,0.72,-5.2,-28.24,2
0.83,1.47,-0.66,-1.6,-11.72,-3.62,-0.25,-0.51,-0.09,-5.37,-1.37,14.31,0.82,1.03,0.69,-21.74,-4.71,41.58,2
-0.07,0.27,-0.36,0.35,13.18,31.04,0.2,0.69,0.21,4.4,-6.25,1.62,0.37,-0.77,0.69,15.86,-13.01,-29.71,2
-0.22,0.87,-0.51,3.28,-10.26,-22.18,0.35,0.09,-1.14,0.49,-1.37,-0.83,0.22,0.13,0.09,-13.44,-2.27,51.83,2
-1.12,0.57,-0.06,-1.12,14.65,21.77,0.2,-0.06,-0.09,4.88,0.09,-14.99,-0.38,-1.07,-0.06,10.49,7.99,-33.13,2
0.08,-0.63,-0.06,2.79,-0.0,-7.53,-0.85,0.39,0.06,11.72,3.02,24.08,0.82,-0.02,0.69,5.12,-5.2,13.26,2
0.83,-0.78,-0.66,5.23,5.37,4.19,-0.85,-0.36,0.06,5.37,-6.25,-8.15,0.37,-0.02,0.99,-5.13,6.52,14.72,2
-0.22,0.87,0.24,-4.53,-0.49,6.63,0.2,-0.06,-0.54,1.95,9.37,7.96,-0.08,0.73,0.24,3.65,8.96,-9.2,2
0.08,0.12,-0.06,-1.12,-0.49,-1.18,-1.45,-0.51,-0.99,1.95,7.42,-7.66,0.22,0.88,-0.21,-0.25,11.89,17.65,2
0.08,-0.18,-0.51,5.23,-2.44,-3.14,-0.55,0.99,0.96,5.37,-8.7,5.52,-0.08,-0.47,-0.51,-9.53,-6.18,-6.76,2
-1.72,0.27,0.54,-3.56,15.14,-4.11,-1.0,0.24,0.66,5.37,19.14,-2.29,-0.08,0.73,0.99,-6.6,13.36,0.08,2
0.38,-0.78,0.09,5.72,4.39,-16.32,0.8,0.09,-0.69,0.0,7.91,-7.66,0.37,-0.47,0.69,-11.48,8.96,2.03,2
1.13,-0.48,-0.36,12.56,0.49,-7.04,-0.85,-0.36,-0.69,8.79,7.91,1.62,0.37,-0.77,-0.51,0.72,-13.99,-12.62,2
0.53,-0.63,0.24,-6.98,-1.47,-2.65,-0.25,0.24,-0.99,1.95,-3.81,-14.01,0.52,0.43,-0.21,-9.53,17.26,24.98,2
-0.22,0.57,-1.71,2.3,-2.93,2.24,0.95,-0.06,0.66,0.98,2.05,1.13,0.52,0.88,0.84,17.81,7.01,-1.88,2
-0.52,-0.03,-0.66,-1.12,0.49,-12.9,0.95,0.24,0.21,1.95,18.65,4.06,-0.23,0.43,0.09,-9.04,3.59,-5.29,2
0.83,0.27,-0.66,8.16,5.86,1.75,-0.85,-0.66,0.06,15.63,-3.33,2.1,0.52,0.43,-0.21,-0.74,0.66,2.52,2
0.53,0.12,-0.51,-6.49,-0.98,-10.46,-0.85,-1.41,-0.39,-9.76,-0.4,-3.76,0.37,0.73,0.24,-3.67,6.52,4.47,2
-0.07,-0.03,-0.66,-3.07,-3.42,-53.43,0.35,0.09,-0.39,8.79,14.74,-53.07,-0.08,-2.27,0.24,-37.36,-8.62,36.7,2
1.58,0.72,-0.66,15.97,20.99,-6.06,0.35,-1.11,-0.69,-13.18,4.98,-26.7,1.12,1.03,0.24,15.37,-13.5,-48.75,2
-0.67,0.57,-0.96,-0.14,0.49,97.45,0.65,0.24,0.21,-6.35,-4.3,-32.56,-0.98,0.43,0.54,54.92,-23.26,-101.97,2
-0.67,0.87,-0.06,-34.32,1.46,8.58,-1.0,0.24,-1.29,15.14,-1.37,-18.4,-1.13,-0.77,0.69,36.86,-65.75,-175.71,2
-0.22,-0.63,0.24,122.91,63.96,279.09,-1.0,0.99,0.21,-39.55,116.79,-581.39,-1.13,-0.02,0.69,284.9,-109.69,-569.26,2
-0.07,-0.48,1.59,-118.3,68.36,393.84,-0.85,-1.11,1.26,-152.83,27.92,503.57,-0.38,1.48,0.69,298.58,-64.28,-238.21,2
-0.07,-0.78,1.29,-31.39,7.32,-72.96,-0.25,0.69,5.91,-11.72,34.27,70.95,2.17,1.18,2.64,-111.58,70.49,272.05,2
0.53,-0.18,1.89,-28.95,35.15,-70.52,0.65,3.69,14.31,-33.2,49.41,86.58,0.97,1.63,3.39,-17.83,4.57,31.81,2
-0.07,-1.68,2.49,69.2,8.79,-200.89,0.65,4.74,12.51,-18.55,85.54,-120.94,0.37,2.53,4.74,7.56,-29.61,62.58,2
-1.72,-1.23,2.49,-228.66,217.77,305.95,0.8,1.59,8.01,-130.37,-95.12,411.77,-0.53,4.18,4.89,-1.72,-50.12,-132.25,2
0.38,-1.98,2.79,53.57,17.09,129.19,-1.15,-2.61,5.46,-289.06,376.07,-2981.78,0.52,2.38,2.64,2242.91,-976.39,-2925.22,2
1.13,-1.68,2.49,7.67,10.74,97.45,0.8,-0.36,5.76,-26.85,-23.34,278.96,2.32,3.58,2.19,77.87,-27.66,-124.92,2
2.03,-1.68,1.59,65.78,41.01,173.13,2.0,0.84,2.31,-18.55,61.62,-193.21,3.07,2.83,2.19,-52.01,22.63,55.25,2
3.23,-0.03,0.84,13.53,12.69,740.03,1.25,0.39,1.26,-17.09,-31.65,55.82,1.72,1.63,0.09,609.12,-287.43,-1276.78,2
2.48,0.27,0.84,9.63,62.5,153.6,0.95,2.94,0.66,-57.62,50.87,149.57,2.17,1.18,3.09,-185.8,18.73,54.76,2
2.18,-0.18,1.44,-54.34,2.93,232.7,3.8,3.24,3.66,15.14,89.45,-29.15,2.02,1.03,5.49,-52.01,6.03,101.64,2
-0.07,-0.03,0.54,-95.35,158.69,453.9,2.3,3.24,2.46,117.19,-77.06,-162.93,1.42,0.43,4.89,64.69,39.72,-178.63,2
-1.87,0.57,1.14,177.59,605.96,-547.57,-1.15,0.09,0.36,-270.02,-119.05,1018.16,2.02,1.03,2.49,274.65,166.68,-73.17,2
0.53,1.32,0.69,-2.58,4.39,28.6,1.7,-0.36,0.06,7.33,7.42,-15.47,0.22,0.43,0.84,14.89,-11.06,-15.55,2
0.08,-0.63,0.24,-0.14,-7.33,-6.55,-1.45,-0.51,-0.99,-3.9,0.09,-10.1,1.42,0.13,-0.21,12.44,-10.57,-4.81,2
0.08,-1.38,-0.51,6.7,9.28,7.61,0.65,-0.51,-0.99,-13.67,4.49,1.62,-0.38,-1.07,0.99,-8.55,-11.55,-19.46,2
0.38,1.17,-0.66,0.35,1.95,-12.9,-1.0,0.24,0.66,0.0,-2.35,10.41,0.37,1.03,0.99,7.56,7.5,-0.41,2
-0.07,-0.03,-1.11,11.09,-11.72,6.63,0.35,0.84,0.06,1.95,4.0,-9.13,-0.83,0.73,-0.81,-4.16,-0.32,-1.39,2
0.38,0.27,0.09,-8.93,1.46,6.63,-0.4,-1.11,0.81,7.81,-5.77,-1.31,-0.23,-0.62,0.09,0.72,-1.29,-2.85,2
1.43,-0.18,-0.96,1.81,-2.93,1.75,1.85,0.69,2.16,-2.93,8.39,-28.17,1.12,-0.77,-0.06,-4.16,-2.27,8.38,2
-0.67,0.12,-0.51,-3.07,-8.79,-12.9,0.65,0.99,0.96,-1.95,-2.35,-1.8,0.37,-0.02,-0.51,7.07,1.64,-6.76,2
0.38,-0.48,-0.36,15.49,-4.4,-0.69,1.25,0.84,-0.39,-12.21,6.44,13.33,2.17,-0.92,0.84,8.54,-5.2,-19.46,2
0.08,-0.18,-0.96,7.18,-7.81,1.26,0.65,-0.51,-0.54,-1.95,-4.3,21.64,0.97,0.88,-0.21,-0.25,1.15,-3.34,2
0.53,-0.18,-0.96,1.81,-1.47,-11.92,-0.4,-1.11,0.36,0.49,-3.81,-13.03,0.52,-0.17,0.54,-3.18,16.29,6.91,2
0.83,-0.03,0.09,2.79,-4.4,4.68,0.2,-0.51,-0.99,0.49,-8.7,-0.83,0.37,1.03,0.24,11.47,-0.32,3.49,2
0.83,0.72,-1.56,-7.46,-6.35,-1.67,-0.4,0.09,-0.69,-3.42,5.46,-19.38,0.37,-0.47,-0.51,-10.02,3.59,23.51,2
0.38,-0.48,-0.36,15.0,3.42,16.88,0.2,0.99,0.21,8.79,-3.81,0.15,0.22,0.88,0.09,-4.65,-13.99,-3.83,2
0.38,-0.48,-0.36,7.67,-4.4,-8.99,0.2,-1.26,1.41,3.91,-7.72,-13.52,0.82,0.73,-1.56,-22.22,9.45,24.49,2
0.98,-0.63,-0.51,7.18,3.9,1.75,0.2,1.74,0.21,-2.93,0.58,-6.68,-0.08,-0.02,-0.51,12.44,-3.25,-14.57,2
-0.22,0.12,0.69,-0.14,-4.4,-9.48,-0.4,-1.11,0.06,-13.18,-0.88,-1.8,-0.08,0.28,0.24,-0.25,9.94,7.4,2
-0.97,-0.48,0.09,15.49,-2.44,12.98,-1.0,-1.26,-1.29,-4.39,-2.84,-0.83,-0.83,-0.77,-0.51,-9.04,6.03,8.38,2
0.53,-0.18,0.69,11.09,5.86,6.14,0.05,1.29,-0.69,-10.74,-7.23,6.99,0.97,0.43,-0.21,-3.18,-4.22,4.47,2
0.98,-0.18,1.14,4.74,11.72,12.0,0.65,0.69,-0.09,-0.49,3.02,-18.4,1.12,1.63,0.09,1.21,2.13,0.56,2
-1.12,-0.18,1.14,18.9,3.42,2.72,-1.15,0.39,0.06,-13.18,-4.79,10.41,1.57,0.73,0.24,9.51,3.1,-0.41,2
-0.07,0.72,-0.36,-7.95,11.72,-0.69,-0.4,0.09,-0.39,-9.28,-9.67,-8.15,-0.08,-0.02,0.69,-8.06,3.59,9.35,2
0.38,0.72,0.09,5.72,6.35,-2.65,0.35,-0.36,0.06,3.42,-3.33,2.59,0.37,1.48,0.69,10.0,0.17,-21.41,2
-0.22,1.32,0.24,-2.09,16.6,0.77,0.2,0.69,0.21,0.0,0.09,-6.68,0.37,0.28,1.44,-3.18,11.89,-4.32,2
0.08,0.87,-0.06,7.67,1.46,-14.37,1.25,0.09,-0.39,-9.76,0.09,14.31,-0.98,0.88,-0.21,-14.41,3.1,2.03,2
-0.52,-0.48,-0.36,2.79,-2.44,13.95,1.25,0.09,-0.69,0.0,5.46,1.62,-1.43,0.43,0.84,4.14,-7.15,-21.9,2
0.38,1.92,0.54,-2.58,-0.49,0.77,-1.15,-1.11,-0.69,-5.86,-11.63,-18.89,-0.08,0.28,0.69,7.07,-7.64,-0.41,2
0.53,0.12,-0.51,-5.02,5.37,-0.69,0.95,-0.81,-0.09,2.93,3.51,2.59,0.37,-0.02,0.69,-5.13,4.57,7.4,2
0.38,-0.78,0.54,15.97,13.67,18.35,0.35,1.29,-0.39,-2.44,-1.37,-3.76,0.82,-0.02,-0.51,1.21,6.52,0.08,2
0.83,-0.03,-0.66,7.18,2.93,-6.06,0.65,0.99,-0.09,-3.9,-0.4,-5.22,-0.08,-0.47,0.69,-7.58,7.5,9.35,2
0.08,0.57,-0.96,7.67,-3.42,-1.18,0.35,-0.36,1.26,-1.46,-0.88,2.59,-0.38,-0.02,-0.06,8.05,4.08,13.26,2
-0.22,0.57,1.14,4.74,-9.28,4.19,0.95,-1.56,-0.54,-0.49,-7.72,5.03,-0.08,-0.02,-0.51,12.44,-2.27,1.05,2
-0.22,0.57,1.14,-7.46,-1.95,1.75,0.05,-0.36,-1.14,-0.49,-14.07,103.18,-0.53,0.13,0.54,-46.15,21.66,87.97,2
0.98,0.57,0.24,0.84,-10.26,-64.17,0.2,-0.06,-0.09,5.86,10.83,-44.77,0.82,-0.77,0.24,-55.43,23.12,122.15,2
-0.97,0.27,-0.66,-0.63,-9.77,-99.33,0.95,-1.56,-0.54,-6.83,28.41,-84.32,1.12,-0.02,0.99,-10.51,-6.66,-17.99,2
-0.07,-0.48,-1.11,-0.14,9.28,-24.62,1.25,0.39,-0.39,-1.46,16.69,-15.96,-1.58,0.73,0.24,11.96,-7.64,-23.36,2
1.58,-1.23,0.09,63.34,-63.48,-383.02,-1.0,-0.51,-0.99,5.37,72.85,-130.22,-0.38,1.03,0.24,-51.52,23.12,244.22,2
0.53,0.57,5.34,-44.09,-122.56,-226.28,-1.15,-1.11,1.26,-10.25,187.59,-897.8,-0.83,0.73,0.99,314.2,-127.76,-578.05,2
0.38,1.92,13.89,4.74,1.95,10.05,-2.2,2.19,3.36,-12.21,19.62,-52.58,-1.13,1.48,2.94,250.24,-104.81,-268.48,2
3.83,4.77,27.84,-28.95,-4.88,97.94,-2.65,2.94,4.41,-6.83,4.0,40.19,1.12,1.78,1.44,-5.13,4.57,28.88,2
13.28,4.62,34.74,-43.11,15.62,78.9,-1.75,3.99,4.11,-17.09,20.11,-139.01,0.52,1.63,1.59,-67.15,21.17,64.04,2
11.48,2.52,21.54,47.22,16.6,214.15,-3.1,3.99,4.41,4.4,2.05,63.63,0.37,2.08,2.94,121.33,-7.15,-34.1,2
6.23,0.27,12.69,-259.91,17.09,-688.19,-2.8,2.34,3.81,-72.26,-20.9,521.64,1.42,1.63,2.34,63.22,36.79,77.71,2
2.18,-0.18,6.54,-5.02,-1.47,54.97,-1.6,2.34,3.06,4.4,-15.04,29.94,1.72,1.18,1.59,564.69,-248.85,-2323.65,2
3.53,0.57,2.19,16.46,-10.74,-44.64,0.35,0.84,1.56,-19.04,4.98,-47.21,0.97,0.88,1.89,-18.81,-2.27,50.37,2
1.58,0.27,0.84,-8.44,34.67,200.48,1.85,1.44,2.91,24.9,-22.86,-13.52,1.57,2.53,0.69,66.15,-32.05,-167.4,2
2.03,0.72,0.84,103.38,-21.49,-321.49,2.3,0.69,0.66,-81.05,-62.9,488.43,0.97,0.43,-0.21,-199.96,82.69,322.34,2
3.53,0.87,3.09,44.29,-2.44,-113.97,1.25,1.29,1.56,-10.25,-58.5,-189.3,2.02,2.08,0.69,-24.18,73.9,141.68,2
4.13,-1.23,2.79,-36.76,4.39,-14.37,1.7,2.79,1.56,-40.04,53.32,-77.49,2.47,-0.17,1.89,-72.03,-3.73,19.12,2
3.68,-1.68,5.19,20.37,33.69,-84.19,2.9,4.29,2.76,75.2,23.53,62.65,1.72,0.13,2.64,-302.99,147.63,133.87,2
1.88,-1.08,3.09,-87.05,4.39,47.16,1.85,1.44,0.96,50.78,-38.48,-114.11,1.57,-0.77,0.24,-21.25,-20.34,-90.74,2
1.13,0.72,0.54,220.07,-73.73,626.75,-0.25,1.74,1.71,51.76,-52.15,374.17,0.82,2.08,1.44,318.11,54.86,-299.73,2
0.08,0.12,-0.51,-6.49,8.79,2.24,0.95,2.19,0.21,3.42,3.02,21.15,0.37,0.73,1.44,-23.2,14.33,28.4,2
0.98,0.87,-0.96,2.3,-1.95,-19.25,-1.15,-0.36,-1.14,4.4,-5.77,-2.29,0.22,-0.17,-0.96,-11.97,-5.2,11.79,2
0.08,1.32,-0.06,9.14,11.23,-18.76,0.65,-0.51,-0.54,-0.97,0.09,-8.15,-0.08,0.28,-0.51,-2.2,-1.29,7.4,2
0.83,-0.03,0.84,-16.74,-0.0,1.26,0.95,0.24,-0.54,8.3,-11.14,6.01,0.22,0.43,0.09,-0.25,-17.89,-7.74,2
-0.07,-0.48,0.54,2.79,3.9,0.28,-1.6,0.39,0.06,-8.79,0.09,-4.24,-0.53,0.43,-0.21,12.93,4.57,-17.5,2
-1.12,0.87,-0.06,-10.88,10.25,-20.22,-0.25,0.24,-0.99,3.91,-1.37,-8.15,-0.23,-0.17,-1.41,-20.76,-2.27,13.75,2
-0.22,0.87,-1.71,6.7,-7.81,1.75,0.05,-1.11,-0.39,10.26,7.42,-9.61,0.82,-0.77,1.74,22.21,-15.94,-14.08,2
-0.67,-0.18,-0.06,7.67,11.72,7.12,-0.4,-0.36,-0.39,-7.32,0.58,6.5,2.02,1.48,-0.81,-2.69,9.45,8.87,2
0.08,0.87,-0.51,16.46,7.32,-5.09,-0.25,-0.51,-0.09,1.95,-0.4,0.15,-0.98,-0.17,-0.21,-10.02,0.17,7.4,2
0.08,0.12,0.69,6.7,-4.88,-7.04,-1.0,0.24,0.96,0.98,9.37,0.15,-0.08,-0.77,-0.06,-2.2,0.66,-8.71,2
0.08,-0.63,-1.26,14.51,2.44,7.61,-0.85,-0.36,-1.14,-1.95,-11.14,31.4,1.12,-1.07,-0.51,6.1,-18.87,-17.99,2
0.83,-0.78,-0.66,-0.14,-0.0,-9.48,0.35,-0.66,0.36,-5.37,3.02,-10.1,1.42,-0.92,-0.96,-1.72,5.06,2.52,2
0.38,-0.48,-1.11,13.04,-4.88,8.1,-1.0,0.24,-0.54,-5.37,1.56,10.89,1.12,0.73,1.44,7.07,-2.76,-10.67,2
-0.07,-0.03,0.09,5.72,1.95,2.24,0.8,0.39,1.56,2.44,-11.14,10.41,0.82,0.28,-0.81,1.7,0.17,10.82,2
0.53,0.57,-0.51,5.23,8.79,11.51,-0.25,-0.06,-0.54,-4.88,-7.72,3.57,0.52,0.13,-0.66,13.91,-2.76,-9.69,2
-1.12,-0.18,-0.06,1.32,2.44,6.14,0.35,-0.66,-0.39,-1.46,10.83,-34.52,-0.38,-0.47,-0.06,5.12,5.54,-15.06,2
-0.07,-1.68,-1.11,16.95,0.49,-2.65,-0.85,-0.66,0.06,-1.46,0.58,12.36,0.37,0.73,0.24,2.19,5.54,13.75,2
-0.07,-0.78,-0.36,-7.95,-4.88,4.19,0.05,-0.36,-0.39,5.37,-2.35,-16.94,-0.08,-0.47,1.44,-5.62,3.59,9.35,2
0.38,-0.48,0.84,-6.98,2.93,10.54,0.95,-0.51,-0.54,8.79,9.37,-8.15,0.22,0.13,-0.66,-0.25,-3.25,-23.85,2
0.38,-0.03,-0.66,0.84,6.35,-15.34,-0.25,-0.81,-0.09,3.42,-10.65,-9.13,-0.08,0.73,0.24,-23.2,5.06,40.12,2
0.38,-0.03,0.09,3.28,1.46,13.95,0.35,1.59,-0.39,1.95,-0.4,-1.31,-0.38,1.03,0.24,10.0,-1.29,-12.62,2
-0.97,-0.03,-0.36,7.18,1.46,-4.11,-0.55,-0.06,-0.09,-7.32,3.02,0.64,-0.38,0.28,0.24,-0.74,7.01,-11.15,2
-0.67,0.57,0.69,0.84,-2.93,-11.44,0.2,0.69,-0.09,0.98,-5.28,-19.38,-0.08,-0.47,0.24,-17.83,-4.22,9.84,2
-0.22,-1.83,-0.06,7.18,-6.84,-8.02,-0.85,-1.11,0.81,-15.62,-6.25,11.38,0.22,-0.62,0.09,-10.51,4.57,16.19,2
0.08,0.12,1.89,7.18,-2.44,3.21,-0.4,-0.36,0.06,-2.93,10.35,-0.34,0.37,0.28,0.24,8.05,7.99,-21.9,2
1.13,0.27,0.09,0.84,8.3,-6.55,-2.05,-0.66,1.26,-7.32,-2.35,-24.26,-0.83,2.83,-1.11,-12.95,2.61,30.84,2
0.53,0.12,1.14,2.79,4.39,-12.9,-0.85,-0.36,-1.14,0.98,3.51,6.5,0.52,-0.17,0.09,-2.69,-14.48,-3.83,2
