MagX1,MagY1,MagZ1,AccX1,AccY1,AccZ1,MagX2,MagY2,MagZ2,AccX2,AccY2,AccZ2,MagX3,MagY3,MagZ3,AccX3,AccY3,AccZ3,Class
-0.92,4.24,1.83,49.96,-76.37,-180.64,-2.13,1.57,0.51,-7.7,17.55,-12.77,-0.94,0.27,-0.79,-53.41,-16.24,-25.43,1
-0.77,4.09,3.63,25.06,31.54,-1.44,-1.98,1.27,0.66,13.3,-3.45,-24,0.41,0.12,-1.39,20.81,-29.42,-7.36,1
-1.82,4.24,4.08,-15.47,29.59,-18.53,-0.78,1.27,0.66,-5.74,18.04,-0.56,0.86,0.12,1.61,13.97,16.47,-4.92,1
-0.32,4.39,5.13,-10.1,11.04,21.51,-0.93,0.07,2.31,-5.74,3.88,-26.93,0.56,1.32,-1.84,-21.67,4.27,-22.01,1
-0.32,4.84,3.63,2.11,29.59,-32.69,0.57,2.02,3.66,6.46,-6.38,5.3,-0.49,2.37,0.26,8.6,3.29,-24.45,1
-0.77,2.14,1.23,88.54,18.85,39.58,0.72,2.32,3.21,-97.05,86.88,40.94,1.16,2.22,0.41,3.72,-6.96,11.68,1
-0.17,1.54,-0.57,-278.65,-296.09,-2046.85,-0.78,0.52,0.21,136.35,-79.13,1007.68,0.41,0.12,-0.94,224.91,-88.02,-297.89,1
-0.17,1.54,-0.57,-2.29,6.15,-10.72,-0.48,0.37,-2.64,7.44,8.76,-7.4,-0.34,0.42,-0.19,-3.6,-1.59,-2.97,1
0.58,0.19,0.48,0.16,1.76,-0.95,-1.68,-0.38,-0.84,2.56,11.69,-2.51,0.41,0.72,-0.94,-1.65,-5.01,5.82,1
-1.52,1.39,0.48,-5.21,-7.52,5.4,-0.48,1.57,0.51,4.02,4.85,-8.86,-0.04,0.42,-1.69,7.14,-1.1,7.29,1
-0.47,1.84,0.63,4.06,5.66,0.02,-0.33,0.52,-1.29,-9.16,4.85,-3.98,-0.19,1.32,-1.84,6.16,4.76,1.43,1
-3.47,4.24,1.38,5.04,-14.36,-250.95,-1.38,1.12,-1.89,27.95,-45.93,13.6,0.86,0.72,-0.64,-4.09,-17.71,-105.51,1
-4.22,6.19,0.63,10.9,-13.38,-30.25,0.12,2.02,0.66,-10.14,0.46,-2.51,1.01,-0.48,-3.34,-8.97,9.15,-3.95,1
-3.62,6.34,2.43,9.43,41.31,-8.76,-1.98,0.22,-0.84,-14.04,16.57,15.06,0.56,-0.18,-0.49,3.72,19.4,-22.99,1
-3.62,7.09,3.18,-4.73,-1.17,-50.76,-2.28,0.97,0.66,0.61,-3.94,1.39,-1.09,0.12,-0.19,16.42,-19.66,-15.66,1
-2.12,8.59,4.08,38.24,38.38,40.06,-1.68,0.82,2.01,3.54,-3.45,7.25,-1.09,0.72,-0.94,-43.15,-24.05,-45.45,1
-0.92,3.04,1.38,35.8,29.1,-97.14,-2.13,1.12,0.81,98.26,-53.74,-43.04,-0.79,-0.33,0.11,-76.36,-8.43,6.8,1
2.38,1.54,1.38,9.43,-8.5,-11.69,-1.08,0.52,0.21,13.79,4.37,0.42,-0.34,0.72,-2.14,43.27,-103.15,-675.33,1
-0.92,1.09,-0.12,9.43,-1.66,-1.93,-0.03,1.12,-1.44,-3.3,6.32,-5.93,-1.54,0.12,-1.39,-2.63,1.34,-5.9,1
-0.47,-0.41,0.63,-3.26,7.62,-3.88,0.57,0.97,-1.29,-1.84,-8.33,0.9,1.01,0.27,-2.29,1.77,-9.89,7.29,1
-0.32,1.39,-0.42,5.04,7.13,1.49,-0.03,-0.68,0.51,-10.63,0.95,8.23,-0.04,0.42,-2.44,5.19,6.22,-5.41,1
-0.17,1.54,-1.32,6.5,-7.03,0.02,0.12,0.52,-1.59,-4.77,-4.91,-4.96,0.56,-0.18,-1.24,-4.58,-0.62,3.38,1
-0.17,0.79,0.18,3.57,9.08,2.95,-0.48,0.37,-0.24,-18.44,-5.4,-11.79,0.26,-0.48,-1.54,6.65,-4.03,-9.32,1
0.58,0.19,1.53,-2.77,-4.1,4.42,-0.78,-0.53,0.21,11.84,-6.87,-1.05,1.01,-0.48,-1.54,-2.14,1.34,-4.92,1
0.13,0.49,-0.42,0.16,0.29,4.42,1.77,0.22,-0.09,-7.21,-5.4,-1.54,1.61,0.42,-1.69,3.23,0.36,-8.34,1
1.18,0.79,-1.02,10.41,1.27,6.37,0.57,0.52,-1.29,-1.35,-10.28,12.62,-0.04,-0.63,0.11,-2.14,2.31,5.82,1
0.88,0.19,0.03,2.6,-7.03,-7.79,-0.48,-1.88,-0.69,-1.84,10.71,1.39,0.26,-0.18,-1.24,-6.04,2.8,-3.95,1
0.58,-1.46,-0.42,3.57,0.78,-0.46,1.17,0.82,0.06,-3.3,-0.52,-3.49,-0.04,-0.33,-1.69,12.02,9.15,-3.46,1
1.63,0.79,0.18,3.57,-4.59,1.49,0.57,-0.98,-0.54,0.61,8.76,-1.54,0.41,-0.33,-0.19,-6.04,0.85,6.31,1
0.13,-0.26,0.03,-5.21,8.11,10.77,-1.38,-0.38,1.26,14.28,-1.01,3.34,-0.94,-0.78,-0.79,-1.16,4.27,-4.92,1
-1.52,-0.56,-1.17,2.6,9.08,-4.86,-0.93,1.57,0.06,2.56,4.37,-13.26,0.26,-0.78,-0.79,4.21,6.22,-2.97,1
0.58,1.39,1.23,-3.75,9.08,8.33,0.87,0.22,0.66,-12.09,3.88,3.83,0.86,0.42,-1.39,11.53,-3.54,-7.36,1
0.28,-0.11,0.18,-3.75,1.76,-9.25,0.57,0.22,-0.09,5,-4.42,1.88,-0.04,-0.33,-0.94,-5.56,-10.87,0.94,1
0.88,-1.76,0.03,-1.8,4.69,6.37,0.87,-0.23,-1.29,-13.55,5.83,-3.49,1.01,-0.48,-0.04,5.67,-9.89,-4.92,1
-0.32,0.49,0.03,-1.8,3.71,-7.79,0.57,-0.98,-0.09,10.37,-4.42,-7.89,1.01,-0.18,-0.49,4.21,14.03,-1.02,1
0.58,0.49,-0.72,5.04,11.04,-2.91,0.57,0.22,-0.09,8.42,3.88,-6.42,-0.34,0.42,-2.14,-8.49,-1.1,-0.04,1
-0.32,-0.56,0.03,2.6,0.78,3.44,-0.03,-0.38,-0.24,6.95,3.39,0.9,-0.49,-0.48,-0.79,2.26,11.1,0.45,1
-0.32,-1.01,-0.72,6.5,1.27,-8.28,0.12,-0.53,-0.54,2.07,-1.01,14.09,-0.19,-1.98,-1.24,-4.09,2.31,-5.9,1
0.28,-0.41,-0.57,4.06,-5.08,3.44,0.57,0.22,-0.54,-3.79,-0.52,17.99,-0.19,-0.78,-0.49,7.14,-9.89,1.91,1
-0.47,-0.41,0.18,5.53,-9.96,-9.25,-0.03,0.07,0.06,-13.55,-2.47,-3.49,1.61,0.42,-0.94,-0.67,-6.96,4.84,1
1.63,-0.11,-0.12,-1.8,-14.36,16.14,-0.48,0.37,-0.24,3.05,5.34,2.86,1.61,-0.33,-0.64,-6.04,-4.03,-1.02,1
-0.17,-0.11,0.18,0.64,10.06,-0.46,-0.03,0.37,0.81,-0.86,-8.33,3.34,-1.39,-1.23,-1.24,-4.58,-1.1,-1.99,1
0.73,0.79,-0.57,4.06,-3.12,-12.18,0.12,0.22,0.66,5,-1.49,7.74,0.41,-1.08,-0.19,-1.65,-5.99,3.87,1
0.58,0.19,0.48,-2.29,8.11,-0.95,0.87,0.97,-0.09,-6.23,4.85,3.83,-1.39,-0.48,-0.79,-4.09,-1.59,-1.99,1
-0.47,-0.41,-0.12,2.11,-4.1,-1.44,-0.03,-0.38,-0.99,-3.3,-6.38,4.32,0.41,-0.33,-0.64,-2.14,-2.08,4.84,1
0.73,0.79,0.63,-7.66,0.78,1.49,-0.03,0.37,-0.99,2.56,4.37,-9.35,-0.04,-0.33,-0.94,-7.51,2.31,-13.71,1
0.28,-0.41,1.38,-0.82,-2.64,4.42,1.17,-0.68,-0.69,4.51,-0.03,18.97,0.86,-1.08,0.11,-5.07,0.85,5.82,1
-1.52,-0.26,1.23,8.46,-6.54,-9.25,0.27,0.37,0.06,-0.37,3.88,4.81,-0.34,0.42,-0.94,-14.83,6.22,5.33,1
-0.92,0.79,0.18,-3.75,-2.15,0.51,0.57,-0.23,-1.29,2.56,5.83,7.74,1.01,-0.78,-1.24,1.28,-2.57,-0.53,1
1.33,0.49,0.03,9.43,10.55,7.35,0.87,0.22,-0.84,-2.32,7.29,1.88,0.86,0.12,-0.64,3.23,-5.01,5.33,1
0.15,0.21,0.97,-2.79,-7.5,3.32,0.22,-0.8,-1.14,-8.06,4.69,-3.79,0.13,-0.34,0.4,3.07,5.1,2.55,1
-0.45,-1.14,-0.38,-3.28,8.61,-1.56,0.52,0.85,-1.44,-7.57,13.96,-4.77,-0.32,1.16,-0.35,3.07,-8.57,-6.24,1
0.15,-1.29,-0.53,-1.33,6.66,2.83,0.07,0.55,-0.99,-3.18,10.55,-1.84,-0.32,-0.04,0.4,7.95,-15.41,-1.36,1
-0.75,1.11,-0.23,12.83,1.28,6.74,-1.13,0.55,-0.24,-1.23,-0.2,-3.79,-0.17,0.56,0.55,-0.83,9.5,10.85,1
-0.3,0.21,-0.23,12.34,2.26,0.39,-0.53,-0.5,0.66,-7.08,13.96,-3.79,0.88,0.71,-0.8,4.54,-5.15,-0.38,1
-1.95,0.21,1.42,8.93,0.31,6.25,-1.58,0.55,0.21,3.66,12.01,-0.38,0.28,-0.49,0.55,1.12,-6.13,7.43,1
0.75,1.26,2.32,-10.61,-5.55,-9.86,-1.58,-0.2,1.26,-4.64,0.29,2.55,0.88,2.21,0.4,5.02,1.2,9.39,1
-1.95,0.21,2.92,4.04,2.26,-8.89,-0.83,-0.95,0.51,-9.04,16.89,6.95,0.13,-0.04,1.15,2.58,7.54,-2.33,1
-3.6,1.11,1.72,18.69,-62.19,-133.4,-2.63,0.25,1.86,-31.5,45.21,22.09,0.73,1.31,0.25,19.18,4.61,30.87,1
-1.35,-0.39,7.42,-22.81,21.79,-53.32,-1.43,2.2,1.86,58.34,-18.75,-0.86,0.88,1.91,0.4,-29.64,-1.73,-21.38,1
4.95,1.56,11.47,-6.21,33.51,-33.3,-1.13,1.3,3.66,-3.67,15.43,8.9,0.43,0.71,2.2,-18.41,0.71,-29.68,1
9.75,-0.09,15.97,38.22,22.28,8.69,-0.83,2.8,4.41,5.61,41.31,-11.61,0.73,1.31,2.35,-7.18,38.31,-0.38,1
9.15,0.51,11.47,35.29,35.46,-52.34,0.82,3.1,5.16,10.49,26.17,8.9,1.33,1.91,1.45,29.44,-16.38,2.55,1
1.95,1.56,5.47,-44.79,36.44,155.18,-0.23,1.45,4.56,13.42,20.8,60.66,1.03,1.31,0.25,38.23,-11.01,-5.75,1
0.75,-0.39,2.02,-82.38,-247.74,-121.19,-1.13,1.6,2.01,174.07,347.46,468.37,-0.17,-0.19,0.85,148.58,-31.03,78.72,1
-0.75,1.11,2.62,-3.77,-2.13,0.88,0.07,0.1,1.26,-7.57,7.13,-2.33,2.23,2.36,-0.2,-4.74,-1.73,-6.24,1
2.4,0.81,0.37,-1.82,-6.53,4.3,0.07,3.55,-0.54,-10.5,-3.12,9.39,1.63,-1.09,-0.8,-6.69,-6.62,0.11,1
0.15,1.41,1.42,-9.14,4.7,10.16,-1.13,2.05,0.96,-9.53,11.52,5,-0.47,-0.94,-0.5,-7.18,-2.71,5.48,1
0.15,1.11,0.97,-8.65,-2.62,-10.35,-0.83,2.05,-0.54,10,-6.05,7.44,0.73,0.26,-1.7,3.07,6.57,-7.22,1
0.6,1.86,4.87,13.81,4.21,2.83,-1.43,2.2,1.56,-62.26,95.51,160.27,-0.32,0.71,-1.1,46.53,-15.89,83.12,1
0.75,-1.44,9.52,-29.65,29.6,3.32,-1.58,4.6,3.21,-3.67,30.08,13.3,-0.17,0.26,-1.7,-8.16,2.66,-6.73,1
4.65,-2.79,12.37,6.97,28.14,-4.98,-2.03,5.05,3.96,-0.25,17.87,15.74,0.88,1.91,-1.4,12.84,19.26,2.06,1
4.35,-2.79,11.17,-29.65,-4.58,32.62,0.52,5.05,3.66,-11.48,22.27,43.57,-0.17,0.86,-0.5,55.32,-18.82,38.68,1
3.45,-0.54,6.07,-117.05,142.89,237.7,0.07,3.85,3.21,-54.45,40.82,11.83,-0.47,2.36,-0.2,98.29,-34.45,60.17,1
2.7,0.66,2.62,-103.38,377.26,-256.45,0.67,2.95,2.61,56.88,131.15,227.65,-0.17,1.31,-0.5,-76.52,13.4,129.99,1
0.9,1.11,0.67,1.11,0.31,3.32,1.12,0.25,1.56,2.19,5.18,-1.84,-1.22,0.86,-0.2,0.14,0.71,7.43,1
1.95,0.81,-0.83,-14.02,8.61,1.86,0.52,-0.65,-0.54,6.59,7.13,-12.09,-0.47,0.56,-0.95,-3.28,-9.06,3.53,1
-0.9,-0.39,2.02,10.88,-3.11,-5.47,0.52,-0.2,0.51,8.54,0.78,-3.79,0.43,1.16,-0.05,-2.79,-2.22,-0.38,1
-1.35,0.81,-1.58,-13.05,-6.04,2.34,-0.38,2.35,0.51,9.52,9.57,0.11,-0.62,-1.09,-1.85,-1.32,4.61,4.99,1
0.3,0.81,-1.13,10.39,-3.11,0.39,0.67,0.25,-0.39,-1.71,-3.12,4.02,0.43,0.41,-0.35,-6.21,-0.27,1.08,1
0.9,0.21,0.22,-7.19,4.7,3.81,0.07,0.55,0.21,-10.99,-0.68,-11.12,-0.62,-0.04,-0.05,-4.25,1.68,-8.68,1
-1.5,-0.09,0.97,-7.68,11.05,5.27,0.22,-0.05,-1.59,-8.06,8.59,-0.38,0.13,-0.34,-0.8,-0.83,-9.06,-5.26,1
0.6,-0.09,1.72,-4.26,5.19,-8.4,-0.23,-0.5,-1.59,7.08,-4.59,6.46,0.88,0.41,0.7,1.61,3.64,12.31,1
0.3,-0.39,-1.13,5.51,-0.18,3.81,0.07,0.55,0.21,-10.99,5.66,-0.86,-0.17,0.56,-1.25,-9.14,-1.73,-13.56,1
0.75,0.06,-0.83,-1.82,13,-1.56,0.67,0.7,-1.14,-3.18,-6.05,2.55,-0.32,1.16,0.4,6.98,12.43,9.39,1
-0.75,-0.84,0.22,3.55,9.58,-6.45,0.22,-0.05,0.36,-4.16,1.27,-5.75,0.43,-0.04,-0.05,2.58,5.1,-3.31,1
-0.3,-0.54,0.67,13.81,0.31,4.78,1.12,-0.05,-0.39,1.7,3.71,5,0.13,-0.34,-1.1,3.07,-8.08,5.48,1
0.3,0.06,-0.38,0.14,-2.13,-4.49,-0.23,-0.05,0.36,10.49,-5.57,-8.19,0.13,-0.04,0.4,6.98,-7.1,1.08,1
0.6,0.66,0.22,-0.84,2.75,13.09,1.42,0.25,-0.84,6.1,-15.82,4.02,-0.47,-0.49,-0.5,6,4.61,-1.36,1
-0.75,-0.09,-0.98,8.44,11.05,-2.54,0.52,-0.95,-0.54,-2.69,-4.1,-3.31,0.13,0.41,-0.05,0.14,-0.76,6.94,1
0.15,-0.54,0.22,-4.75,1.28,-4.49,0.82,0.55,-0.24,3.66,-0.68,3.04,-0.32,0.71,-1.85,-7.67,-0.27,10.36,1
-0.3,0.21,0.22,3.07,-3.11,-12.79,0.82,-0.2,0.51,-1.23,0.29,1.09,-0.32,0.41,0.7,-2.79,10.47,0.11,1
-0.15,0.81,-0.38,5.02,4.21,2.83,0.07,-0.65,0.21,-19.78,-0.2,4.02,1.03,-0.49,1.3,1.61,-5.15,-1.85,1
0.6,-0.09,-0.23,-1.82,-5.55,7.23,0.22,0.25,-0.09,-9.04,5.66,5.48,1.48,-0.49,0.55,7.95,2.66,12.8,1
0.15,-0.54,0.67,-3.28,-6.53,1.37,-1.13,0.1,0.51,7.56,1.27,-0.38,0.88,0.41,0.7,4.54,1.68,9.39,1
0.15,-0.09,0.67,-10.12,0.31,-2.05,-0.38,-0.65,0.51,2.68,10.06,5,-0.92,-0.49,-0.95,-0.83,-2.22,-7.7,1
0.15,0.21,-0.53,4.53,7.63,-2.05,0.52,-0.2,-1.44,5.12,1.27,-4.77,1.03,0.26,0.55,-3.28,7.54,9.87,1
0.9,-0.84,-0.53,1.6,2.26,-2.05,1.72,-0.95,-0.54,5.12,8.11,8.9,0.13,0.71,-0.35,10.4,4.13,3.04,1
-0.45,0.51,0.37,-7.68,3.24,-9.38,0.52,0.85,0.96,4.15,-4.1,-6.72,0.43,-0.64,-0.8,-1.81,-5.15,6.46,1
-0.75,0.66,0.97,5.02,-3.11,6.25,0.22,-0.8,0.36,3.17,-1.66,-2.33,-0.17,-0.49,-0.5,-13.04,0.71,9.39,1
0.66,-0.92,0.97,2.71,1.53,-0.48,2.55,-0.36,0.79,-3.62,-7.16,3.37,-0.42,0.11,0.32,-3.81,0.31,-14.39,1
0.21,1.33,-0.23,10.52,13.25,-2.92,1.2,-0.21,1.09,-9.48,2.11,-9.81,0.33,0.41,-0.88,-11.62,7.14,7.09,1
2.46,1.33,0.22,15.89,6.41,42.97,0.15,0.39,1.69,-1.67,0.16,-28.37,0.33,-0.34,-0.13,-16.5,-5.06,14.41,1
2.01,-1.22,0.82,45.68,52.8,564.46,0.75,0.24,2.59,80.37,6.51,37.06,0.33,0.41,-1.48,-107.81,-70,-182.85,1
2.01,-0.02,-1.13,119.9,94.79,-22.46,-0.6,1.14,1.99,13.47,-13.51,29.74,-1.17,1.61,0.62,-198.63,216.13,412.36,1
0.66,-1.82,0.22,-6.08,10.81,-16.6,0.75,2.04,0.64,18.84,2.6,-6.88,-0.27,0.56,0.77,-17.48,-27.04,13.93,1
2.91,-2.72,0.37,8.08,10.81,38.09,1.65,1.29,2.59,20.8,7.97,18.51,-0.42,1.61,0.62,-9.18,-6.53,-1.7,1
1.41,-2.12,0.67,-0.22,17.64,-40.52,3,1.44,2.74,-17.78,0.65,1.9,-1.02,1.76,-0.58,30.37,15.93,18.81,1
0.96,-3.32,-0.98,-9.01,14.71,-14.64,2.4,0.54,2.59,-19.73,14.81,-7.86,1.68,-0.49,-0.58,-16.99,-21.67,-5.61,1
-0.09,-0.77,0.82,9.55,6.41,5.38,3.6,-0.51,2.59,-28.52,4.07,-8.35,0.93,-0.04,-0.28,21.09,-3.6,-28.55,1
1.86,0.58,0.22,-12.43,-3.35,-55.17,2.4,0.24,2.14,9.08,7.97,8.74,1.23,0.41,-0.43,-32.13,-40.22,-34.41,1
0.36,0.43,0.07,10.03,8.85,3.42,1.35,0.69,0.79,-0.69,-0.33,-6.88,0.03,-0.64,-1.18,181.74,-57.8,847.91,1
0.66,0.13,2.62,1.73,9.83,0,1.8,-0.06,1.24,-1.18,-7.65,-3.47,-0.42,0.41,-0.43,-8.69,4.21,-3.16,1
-0.84,0.43,0.37,11.01,-4.82,-5.85,0.6,-0.81,1.69,7.61,6.51,-4.93,-1.77,-0.49,0.77,-10.16,1.28,-7.07,1
-0.09,-0.02,0.37,-80.79,-45.83,42.97,1.8,0.39,1.99,8.1,17.25,-37.65,0.03,0.86,1.07,-40.43,14.47,85.7,1
-1.74,0.73,0.07,117.94,86.98,90.83,1.65,1.29,2.89,20.8,7.49,215.28,0.63,1.76,1.52,260.35,35.95,-27.09,1
-1.29,-0.02,-0.83,0.27,16.18,-11.23,0.45,1.74,2.14,1.26,18.23,0.93,0.78,0.86,2.12,19.63,3.24,16.86,1
-2.34,-0.17,2.62,5.15,10.81,42.97,1.65,1.74,4.09,-36.82,-5.7,18.51,0.78,1.91,1.07,-4.79,-1.65,5.14,1
-0.99,-0.92,1.72,9.06,11.78,-41.01,1.65,-0.51,5.29,-29.99,2.11,-53.27,-0.42,0.41,1.07,-19.92,25.7,90.59,1
-2.04,-0.47,1.12,-17.8,12.27,45.9,1.05,-1.11,3.19,6.15,20.18,9.23,1.23,1.16,1.07,-39.45,-10.43,-14.39,1
-2.04,1.18,2.02,32.98,45.47,16.12,-0.45,-1.26,1.39,-20.71,41.18,21.92,-0.27,1.01,0.47,-30.18,-22.15,-40.27,1
-2.79,2.08,0.22,2.71,-14.1,-8.78,-0.9,0.24,-0.41,263.96,-27.18,-783.25,0.33,0.41,-0.43,622.17,-488.95,-1069.08,1
-1.29,0.43,0.82,7.1,-0.91,-6.34,-0.45,0.54,0.34,5.66,-0.33,2.39,0.03,-0.64,-0.88,-17.97,9.1,-4.63,1
-1.44,1.33,-0.23,-14.38,-6.28,-5.37,0,-0.21,-0.41,-10.45,4.56,-4.93,0.33,0.11,0.62,2.05,-0.67,-6.09,1
-0.24,0.13,-0.53,7.59,2.02,2.45,-0.3,1.14,-1.01,-1.67,-4.72,2.39,0.03,-0.34,0.32,7.91,1.77,-0.23,1
0.36,0.73,1.12,-6.57,1.53,-0.48,-2.1,-0.21,-0.11,-4.11,-3.26,6.79,-0.27,0.26,0.17,4,-0.18,-2.68,1
0.21,0.58,-0.23,1.25,-4.82,9.77,1.05,-0.81,0.04,-8.01,3.09,-14.7,-1.02,0.56,0.77,5.47,4.7,0.25,1
-0.39,-0.02,0.37,8.08,2.99,-8.3,-0.9,0.54,-0.41,-6.55,-3.26,-5.42,-0.42,-0.34,0.62,-12.6,-2.13,9.04,1
-0.99,-0.62,-0.23,1.25,9.34,-5.85,-1.5,1.29,-0.11,2.73,-3.26,4.83,-0.27,0.56,1.22,-6.74,-0.67,-13.42,1
-0.24,0.13,-0.23,6.62,2.99,-3.41,0,0.24,-0.11,-16.31,-6.19,9.72,-0.57,-0.04,-0.28,-1.37,-3.6,1.72,1
0.81,-0.47,0.37,11.5,0.55,-0.97,-0.3,-0.06,-1.01,-3.62,-6.67,-2,-0.72,0.41,-0.88,4,-4.09,1.23,1
-0.84,-0.47,-0.38,5.15,10.32,3.42,1.05,-0.06,-0.71,-16.8,-3.26,3.86,-1.02,-1.24,-0.28,0.1,-1.65,2.21,1
-0.39,-0.47,1.12,-0.71,-6.28,1.47,-1.05,0.69,-0.26,0.78,3.58,-8.84,-0.57,1.31,-0.58,-4.3,5.68,4.16,1
-0.24,1.78,0.22,13.94,5.92,-0.48,-1.05,-0.81,0.04,1.75,6.02,0.44,0.33,0.86,1.07,9.86,-1.65,-6.58,1
-0.84,0.43,0.07,7.1,1.04,-0.48,-0.6,-0.81,-0.71,-0.69,1.14,-4.93,-0.57,-0.04,0.77,-1.37,1.28,2.21,1
-0.99,-0.17,-0.53,9.55,-4.33,11.72,0.45,-0.51,-0.11,5.17,5.04,-6.4,0.63,-1.24,0.77,-4.79,-10.43,-2.19,1
-0.24,0.13,-0.53,-1.2,-6.77,1.47,-0.9,0.54,0.34,-5.08,-3.26,6.3,-0.27,-0.49,0.47,0.59,2.75,-0.72,1
-0.69,1.33,-0.23,2.71,-4.33,7.33,1.2,1.29,-0.11,-3.62,-4.72,2.39,0.33,1.61,-0.13,-5.76,-5.06,-4.63,1
-0.24,1.03,-0.23,-8.52,4.46,2.45,-0.9,0.54,0.64,-1.67,1.63,2.39,0.03,0.11,-1.18,-8.69,-1.65,14.41,1
-0.09,-0.02,-1.13,8.57,-2.87,0.49,-0.3,1.14,-0.71,-12.9,-2.28,0.44,-0.27,-0.79,1.22,-0.88,-0.18,4.65,1
0.21,-0.62,-0.98,12.96,2.99,4.4,0.75,0.54,1.09,5.17,-8.63,-2.98,0.18,-0.49,-0.28,7.91,4.21,-3.16,1
0.81,-0.02,-1.58,-0.22,-2.87,-5.85,-1.05,0.69,-1.01,8.1,2.11,-5.42,-0.42,-0.34,0.62,-8.2,-0.18,-5.61,1
-0.99,-0.17,-0.23,-0.22,3.97,-9.76,0.6,-0.06,-1.01,-0.69,-6.19,3.37,-0.72,-0.34,-0.88,-1.37,4.7,1.23,1
-0.39,1.18,1.12,-4.61,1.53,1.47,-0.45,0.54,-0.41,1.26,-10.09,-2,-1.02,1.01,0.17,-2.83,-2.13,-6.58,1
-0.24,0.13,-0.23,8.08,8.36,-5.37,0.45,-0.21,-0.11,-8.01,-5.21,7.76,-0.57,0.26,0.47,6.93,2.26,-5.61,1
0.21,1.33,1.42,-1.68,1.53,5.86,0,0.99,-1.31,-9.48,-1.79,-5.91,0.33,0.11,-0.43,1.07,5.68,7.09,1
1.86,0.13,-1.43,-1.68,-6.77,-5.85,-0.6,-1.11,1.24,0.29,7.49,5.81,0.63,-1.54,0.47,-8.2,-3.6,-3.16,1
-0.39,0.43,0.07,4.17,5.92,-0.48,0.15,-0.36,-0.26,1.26,8.46,-7.37,0.18,1.31,1.22,-0.88,-5.06,-7.56,1
0.21,0.58,-1.43,5.64,2.5,-1.95,0.75,0.24,0.64,-1.18,3.58,6.79,0.78,0.41,0.32,-11.62,-6.53,9.04,1
0.21,-0.62,-0.23,-4.13,-1.4,2.93,0,0.24,-1.31,0.78,-3.75,4.35,-0.72,-1.39,0.62,6.45,-13.85,-1.21,1
-0.29,-0.12,-0.12,-19.03,2.64,-2.62,-2.18,0.52,-0.88,3.65,17.02,-3.87,-0.18,0.31,0.69,-11.81,9.12,-3,1
-0.29,-1.17,0.33,8.8,12.9,-2.13,-3.23,-0.08,-1.18,-5.14,5.3,-2.41,-1.08,-0.59,1.29,4.79,-10.9,13.11,1
-1.04,-0.12,1.08,1.96,1.18,-13.36,-2.78,0.67,0.02,6.09,11.16,7.36,-0.93,-1.19,1.14,-0.09,3.26,-13.75,1
-1.49,-1.17,2.73,10.75,1.67,-7.99,-4.43,-1.28,-1.18,-0.75,11.65,-3.38,-0.18,0.61,1.44,-3.51,-1.14,5.79,1
-0.29,-2.82,5.43,66.42,-45.21,29.12,-6.08,0.97,5.42,-31.02,71.22,183.14,-0.33,1.96,2.04,50.2,4.72,35.08,1
1.21,-2.97,4.83,-28.8,45.61,15.44,-7.13,3.82,12.47,9.02,36.55,-0.45,1.32,3.46,2.04,-2.53,-9.44,-11.3,1
0.61,-4.02,4.68,9.78,50,-34.85,-5.33,11.62,25.67,-11,63.4,-32.68,1.32,3.76,2.04,-29.88,-1.63,-39.14,1
-0.74,-2.37,2.28,29.31,50,-132.02,-1.43,9.52,20.12,-18.33,0.9,34.21,0.72,2.86,2.94,50.2,-19.2,47.29,1
-1.04,-0.87,2.28,173.84,-181.44,-586.61,-1.88,2.02,7.07,63.71,25.32,-116.67,-0.33,1.96,1.29,-528.41,1.3,258.23,1
0.16,-0.87,1.53,-7.8,-0.78,3.73,-0.38,0.67,1.97,-6.12,1.88,-6.8,1.62,0.91,-0.96,9.67,5.21,-2.03,1
0.76,0.93,2.43,11.73,7.04,1.77,-0.98,1.27,0.92,14.88,-0.56,-5.34,0.72,0.31,-0.36,-3.02,-4.07,-3.49,1
0.91,0.33,2.28,-17.08,-1.26,-2.13,-1.43,1.57,-1.33,-2.7,-9.35,-7.29,0.27,0.31,-1.86,-10.35,-2.11,-4.47,1
-0.89,-0.27,1.23,5.87,-18.35,-5.55,-2.78,1.72,0.02,8.04,6.27,4.92,-1.23,1.36,-1.11,10.16,-7.49,-2.03,1
-1.04,0.33,3.48,11.24,-5.66,43.28,-4.73,2.32,1.37,-60.81,-71.85,-42.93,-0.48,0.31,-1.86,-13.28,101.89,20.43,1
0.31,0.18,4.83,-28.31,8.01,24.72,-4.28,3.52,1.37,-15.88,73.66,10.78,-0.93,0.61,-1.11,82.92,-25.06,65.36,1
-0.29,-0.87,4.68,57.63,35.84,-10.92,-0.38,3.37,5.42,128.16,-14.72,69.86,1.02,2.11,-1.11,-28.41,-9.44,33.13,1
1.21,-1.47,1.68,-129.38,52.45,56.95,-2.03,4.12,5.42,-171.16,98.56,168.49,-0.33,0.46,0.99,235.75,-3.09,109.3,1
3.31,-1.77,3.33,-3.41,-1.75,-9.46,0.22,0.82,1.37,-103.29,46.8,-1679.17,-0.18,0.31,-0.66,135.65,311.36,636.65,1
1.36,-0.42,0.33,0.5,-0.29,1.77,0.97,2.02,-0.13,-2.7,5.79,2.48,0.12,0.46,-0.21,7.72,1.79,5.3,1
1.66,-0.27,-0.27,-7.31,-1.26,-13.36,-0.23,0.82,0.17,6.58,5.3,1.5,-0.33,1.66,0.24,-3.02,5.7,0.42,1
0.76,-1.02,2.13,7.33,-0.78,4.21,1.42,1.27,1.37,3.65,-2.03,2.48,1.02,1.06,-0.36,-6.93,-5.53,9.2,1
-0.14,-1.47,-0.72,-7.8,0.69,-5.06,1.42,0.52,-0.88,9.51,0.9,2.48,1.47,0.61,0.09,-1.07,-13.34,-11.79,1
-0.44,0.18,0.93,-7.31,-3.22,13,0.22,1.27,-0.58,2.18,-3,0.52,-0.18,1.06,0.09,2.35,3.26,-3,1
0.61,-0.87,0.33,7.82,8.5,0.31,-0.38,0.97,-1.18,-7.58,-5.93,2.96,0.72,1.81,0.39,-4.49,-8.46,-4.47,1
0.16,0.33,-0.12,0.01,-3.71,-7.99,-1.28,-0.83,-1.48,7.55,6.76,-2.9,-0.33,-0.59,-1.26,9.67,6.19,-3.49,1
-0.74,-0.12,-0.87,1.47,2.64,-4.09,0.67,-0.68,-0.88,-5.63,-9.35,1.01,0.42,-0.59,-0.51,-5.95,15.46,1.39,1
0.61,0.78,1.53,9.29,-13.96,-4.58,-0.83,0.22,0.02,-10.02,2.86,2.48,0.12,-0.89,-0.21,-8.88,-2.6,0.42,1
-0.89,0.93,-0.72,15.15,-8.59,-17.27,-0.23,0.82,0.17,-9.54,-3.49,-7.78,-0.18,1.06,1.44,12.11,-7,-1.54,1
0.31,-0.27,0.48,9.29,-4.68,-4.58,-0.23,0.07,0.62,-8.56,7.74,2.96,0.27,-0.44,-0.36,3.81,-6.51,-4.47,1
0.91,-0.87,-0.42,-15.13,5.08,0.8,-0.38,0.22,0.02,2.18,3.34,2.48,0.87,0.46,-1.26,9.18,-0.16,3.34,1
1.96,-0.72,-0.27,16.12,1.18,4.7,0.07,0.97,0.02,-1.24,2.86,-6.31,1.02,1.06,0.09,-2.53,-2.11,2.86,1
0.31,0.18,-0.72,8.31,3.13,4.7,-0.23,0.52,0.17,8.04,2.86,3.45,-0.33,0.16,0.54,4.3,13.51,-2.51,1
0.31,-0.27,-0.27,-5.85,7.04,-10.43,-1.43,-0.23,0.92,10.48,-4.47,0.52,0.87,0.46,0.99,-0.58,-2.6,-6.42,1
0.31,0.48,0.48,-0.97,-5.66,-5.06,-0.98,0.52,-0.13,-1.72,-3,5.41,-0.33,-0.29,-0.96,-4.98,11.56,-1.54,1
0.76,-1.02,-0.72,0.01,1.67,-7.5,-0.38,0.22,0.32,0.72,-1.05,4.92,1.62,-0.29,0.54,-5.46,-0.16,-6.91,1
0.91,-0.42,0.33,-4.87,-3.71,-1.16,0.07,0.67,-0.73,-7.58,1.88,-5.83,-0.18,0.31,0.39,9.18,-13.34,-12.28,1
0.31,-0.72,0.93,-11.22,1.18,5.19,0.07,-0.53,-0.43,-2.7,-11.79,1.01,-0.18,0.01,0.09,16.51,9.6,-7.89,1
0.16,-0.87,-0.12,-3.41,-8.59,-5.06,-0.23,0.82,-0.13,3.65,2.37,-14.61,-0.48,-0.44,-0.36,3.81,8.14,-6.91,1
0.61,-0.12,-0.12,-11.71,10.94,1.28,-0.23,0.07,-0.88,17.81,-6.42,5.41,-0.48,0.61,1.14,10.65,-3.58,13.11,1
0.31,-0.72,0.18,7.33,2.15,-8.48,-0.53,1.57,0.62,6.58,2.86,-9.24,-0.93,0.31,-1.41,-3.02,-4.56,-3.98,1
0.16,0.78,0.33,0.99,13.87,1.28,0.37,-0.83,-0.73,0.23,-0.56,0.03,-0.48,-0.44,0.09,7.23,-16.27,-6.42,1
-0.44,0.93,0.48,-2.43,-5.17,-0.67,0.22,0.07,-0.58,-1.24,2.37,12.73,-0.33,0.46,-0.21,-13.76,-11.88,8.23,1
-0.74,-0.12,-0.12,-6.83,0.69,5.68,-0.38,0.22,0.32,-7.09,6.76,-0.94,-0.33,0.16,0.24,4.79,-11.39,-3.49,1
0.31,0.93,-0.72,6.36,-5.66,-7.5,0.22,-0.68,0.62,-8.07,1.88,1.99,0.12,0.46,0.24,-2.53,-4.56,0.9,1
-1.04,-0.42,0.33,-2.92,-12.01,-4.09,-0.53,-0.98,0.62,-14.42,0.42,-8.27,0.72,0.61,1.14,6.74,-12.37,2.86,1
-1.34,-0.72,0.93,-1.94,6.55,-9.46,0.67,0.52,0.17,2.67,-5.93,4.92,0.27,-0.44,1.89,-0.09,4.72,-3.49,1
1.21,-0.27,1.68,4.89,-1.75,2.26,0.97,-0.68,-0.58,3.65,0.9,3.45,0.72,-1.49,-1.86,6.25,-6.51,3.83,1
-0.74,-1.17,0.78,8.8,5.08,0.31,-0.83,0.22,-0.43,10.97,6.76,-5.34,-0.33,1.21,0.54,-4.49,-1.63,-12.77,1
-0.74,-0.12,0.78,-10.24,0.69,-1.65,0.37,-0.08,0.32,-4.65,14.58,12.24,0.12,0.16,-0.51,18.95,1.3,-1.05,1
0.76,-0.72,0.93,-9.27,-12.01,-7.02,0.97,0.52,-0.88,-4.17,4.32,1.5,-0.33,0.46,0.99,6.74,-6.02,-12.28,1
-1.55,0.85,0.21,10.35,3.84,8.95,-2.2,1.59,0.23,11.51,-1.37,3.6,0.56,0.66,1.19,-1.99,-2.95,0.83,1
-2,0.4,0.66,-5.77,-4.95,12.37,-1.45,-1.56,0.98,-2.65,-0.88,8.97,-0.64,1.11,0.44,1.43,-7.35,6.2,1
-2,-0.8,2.16,-2.35,5.8,-15.46,-2.65,-0.36,0.68,5.17,-1.86,-1.28,-0.04,0.96,1.79,4.36,6.81,4.24,1
-2.45,-0.35,3.81,-63.38,-79.65,-130.7,-2.65,-0.36,0.23,25.67,26.46,-18.37,0.11,0.36,1.64,26.33,-20.53,62.84,1
-1.1,-0.35,4.56,45.99,-1.04,22.62,-0.25,-1.56,1.43,-47.57,67.48,-26.67,-1.09,1.86,1.19,-34.22,-1.49,-38.24,1
0.25,0.25,2.76,-4.79,7.75,-7.16,-0.25,-0.06,2.93,-7.53,22.55,0.18,0.86,2.61,1.19,-28.85,-13.7,-14.31,1
1.3,-0.8,3.81,-4.3,18.98,-1.3,4.85,1.29,0.53,0.77,14.25,20.69,1.31,2.16,1.19,15.59,1.93,11.08,1
0.7,0.25,2.01,-9.18,18.49,8.95,6.05,-0.51,1.28,3.7,9.37,29.48,1.31,0.36,2.69,60.51,-43.97,-63.14,1
-2.6,-0.2,-2.34,23.53,14.1,14.81,5.45,-1.11,-0.07,0.28,33.3,14.83,2.21,2.01,2.54,-0.04,-5.88,0.34,1
-0.8,-0.35,-0.54,80.66,44.86,56.31,5.3,0.24,1.28,-8.51,45.5,1.65,0.86,1.86,3.14,9.24,0.46,11.08,1
0.25,-0.95,-0.39,47.46,-51.33,-152.18,1.1,0.69,-0.07,21.77,-34.58,93.93,-0.64,1.11,0.89,-144.57,-15.16,-32.38,1
-0.2,0.55,1.56,8.39,5.8,-6.19,0.8,0.99,1.28,-217.98,172.46,-607.24,1.16,0.21,0.74,373.01,282.69,389.5,1
-0.2,0.25,2.01,0.58,6.28,4.07,0.05,0.99,1.28,-20.22,9.37,1.65,1.16,1.71,-0.01,7.77,0.46,-4.55,1
0.7,0.55,2.31,-1.86,15.07,3.09,0.65,0.39,0.98,8.1,-10.16,-2.26,0.26,-0.54,-1.51,3.38,-14.67,-3.57,1
-0.35,0.55,1.11,0.09,-11.78,5.04,-1.45,1.59,2.63,5.65,9.86,13.85,-0.49,0.96,-1.81,-9.32,-1.49,1.31,1
-0.2,0.25,0.81,-11.14,-2.5,-5.21,-1.45,2.34,-1.57,2.24,-1.37,2.62,-1.09,-0.39,0.14,-8.34,-1.98,8.64,1
-2,1.6,1.71,29.88,-20.57,7,-1.45,0.39,0.23,-16.32,14.74,-19.84,-0.49,0.21,-0.01,-8.83,17.55,9.61,1
-0.95,2.95,5.46,-45.32,10.68,17.25,-1.45,1.59,0.23,-26.08,20.6,-32.05,-1.84,1.41,-2.86,-44.96,-6.86,-30.42,1
-0.95,3.7,5.16,-8.21,2.38,-13.02,-1,2.34,2.18,-4.6,-5.28,-11.54,0.26,1.71,-1.51,3.38,0.95,5.22,1
-0.2,4.15,10.26,-17,30.21,-30.6,-1,1.89,2.93,-1.18,15.72,-1.28,-0.49,0.51,-0.76,-9.8,-10.77,-3.57,1
0.7,4.9,8.61,10.83,-7.88,-50.62,1.25,2.49,3.08,20.79,-28.72,43.64,-1.24,-0.24,-0.01,35.61,-24.44,-73.39,1
1.15,4.9,7.86,39.16,8.73,-26.69,2,2.49,4.28,25.19,13.28,12.88,-0.64,1.11,-0.16,46.35,-1.49,49.65,1
1.75,3.55,3.36,-261.14,-49.87,376.63,0.8,1.29,3.53,-13.39,-12.6,14.83,-1.09,1.11,0.14,34.63,-4.42,-21.64,1
1.9,0.25,2.01,-134.67,1.4,339.03,0.2,0.69,2.18,354.78,-63.38,318.05,0.56,1.11,0.44,66.37,12.67,6.2,1
0.7,0.25,1.11,3.02,6.77,4.07,-1,2.34,0.23,-4.6,13.76,0.18,0.11,0.66,-1.66,-0.53,-0.51,3.75,1
0.55,-0.35,0.96,-3.33,5.31,-2.28,-1.15,-0.51,0.53,-7.53,8.88,6.53,-0.34,0.06,-0.16,-9.8,-15.16,-4.55,1
1.15,0.55,-0.84,5.95,0.42,-8.63,1.25,0.54,0.08,11.51,2.53,-4.7,-1.84,0.06,-0.61,8.26,-5.88,5.71,1
0.25,0.25,-0.39,-5.28,5.31,-8.14,1.85,0.69,-0.07,-0.21,0.58,6.04,-1.39,-0.39,-0.61,14.12,-0.51,-5.52,1
-0.5,0.25,0.36,7.91,-1.53,1.14,0.8,-0.21,0.83,1.75,-5.77,-0.8,1.16,-0.54,-0.76,0.94,-2.95,-3.08,1
0.1,-0.8,0.21,5.95,5.31,-9.6,0.5,0.24,0.53,10.54,-5.28,0.67,-0.49,-0.84,-0.01,-0.04,-2.47,6.2,1
-0.2,-0.65,-0.84,-0.4,7.75,1.14,0.65,0.69,-0.07,2.72,0.58,8.97,1.61,0.66,-0.16,-4.43,-3.93,2.78,1
0.55,0.4,-0.99,-8.7,-2.02,-17.42,0.65,-0.06,0.68,12,-5.28,-3.73,1.46,0.96,0.29,9.73,-0.02,-10.89,1
0.55,0.4,-2.19,7.42,-1.53,-2.77,-1.15,0.24,-1.12,-6.55,2.53,-0.8,0.26,-0.24,-0.01,4.84,-3.44,9.13,1
0.85,-1.55,-0.24,5.95,-5.43,-1.79,0.8,-0.21,0.08,-0.69,-1.37,5.06,0.86,0.36,0.44,-2.48,3.39,-12.36,1
-0.8,-0.8,-0.99,-0.4,-5.92,3.58,1.4,-0.36,-0.07,-4.6,-2.84,-2.75,0.71,1.26,-0.46,3.38,-4.42,-5.52,1
-1.1,0.4,1.71,0.09,3.84,-3.75,0.65,0.69,0.98,1.75,-3.81,8.97,0.71,-0.24,-0.46,-1.5,13.16,0.83,1
-2,-0.35,1.41,-6.74,-7.39,-1.3,0.05,0.24,0.83,7.61,-4.79,-2.75,-0.04,-0.54,1.04,-4.43,-1.49,-9.92,1
-0.35,-0.05,-0.54,1.07,2.87,-7.16,-0.4,0.24,-1.12,7.12,9.86,9.46,0.71,-1.59,-0.46,10.21,-1.98,-0.64,1
0.55,-0.05,0.21,4.49,1.4,-7.16,-0.55,1.14,-0.07,-0.69,-5.77,-4.7,1.16,-0.84,0.29,-6.87,-0.02,-10.89,1
-0.5,0.55,-0.39,2.05,1.89,12.37,0.5,-0.51,0.08,1.75,-3.33,-4.7,0.11,0.66,0.14,-4.92,-5.88,5.71,1
-0.5,-0.65,0.36,1.07,-0.55,-6.67,-1,-0.06,-0.07,2.72,-3.33,6.53,2.06,0.06,0.89,-2.97,2.91,9.61,1
1.3,-0.35,-1.44,4.98,-1.53,8.95,0.05,0.54,-1.12,2.24,4,-6.66,-0.64,-0.69,-0.16,-3.46,1.93,-2.59,1
0.55,-0.05,0.66,-9.18,-2.02,8.95,1.7,0.54,-0.22,3.7,5.95,3.11,-0.49,0.51,-1.21,1.91,-2.47,1.8,1
0.1,-0.35,-0.54,-1.86,2.38,9.93,0.5,1.29,0.08,7.12,0.58,1.65,-0.49,-0.54,0.74,-10.29,5.35,-3.08,1
-0.8,-0.05,-0.54,-1.86,0.42,-6.67,0.05,0.24,0.83,-2.16,-3.81,-0.8,-1.39,0.06,0.44,-3.95,-1.49,0.34,1
-0.8,-0.35,-0.54,0.09,-3.48,5.04,0.5,-0.96,0.53,2.24,-4.79,-10.07,-1.09,0.06,-0.61,-13.22,-4.42,4.24,1
-0.2,-1.4,0.06,4,9.21,-3.26,-1.15,0.24,0.08,-9.97,-14.07,6.04,0.11,0.66,-0.16,2.4,-6.86,-0.64,1
0.85,0.4,-0.99,-8.21,-6.41,8.95,-1,-0.06,0.98,11.51,1.07,3.6,0.86,0.66,-0.61,3.38,2.42,2.29,1
-1.55,-0.35,0.21,2.53,6.77,-6.19,0.8,0.24,0.83,8.1,-5.28,9.46,-0.34,0.66,0.44,-3.95,-10.28,2.78,1
-0.35,-0.05,0.21,0.58,1.89,1.14,-1.6,0.99,1.28,4.19,-10.65,3.11,1.16,0.51,-0.01,-4.92,-2.95,-3.57,1
-0.68,0.7,1.04,-8.17,-1.01,7.12,1.15,-0.01,0.06,-1.92,3.62,-4.74,-0.52,0.34,-0.21,-4.07,9.45,8.48,1
-0.08,-0.8,-0.31,5.5,-2.96,-2.64,1.45,0.29,-0.39,-0.95,-10.05,-4.25,0.38,0.49,-1.11,12.05,-1.29,0.67,1
-0.08,0.1,-0.31,1.1,4.37,-10.45,1.3,0.14,-0.24,7.84,-2.24,7.47,0.83,-0.26,-0.36,-1.63,-0.31,2.13,1
-0.98,-1.25,-1.36,1.1,5.34,-6.06,-0.95,-0.46,1.11,2.47,3.62,-0.83,0.08,0.94,-1.11,-3.09,-8.13,5.55,1
0.22,-1.25,1.04,0.13,10.22,-1.66,0.4,-0.61,0.96,4.91,-9.56,1.12,0.98,0.64,-0.96,11.56,-3.24,-2.26,1
-0.98,-0.2,1.04,-7.2,-3.94,0.29,0.85,-0.31,-0.54,1.49,0.21,-0.34,-0.22,0.64,-0.51,2.28,3.11,-0.31,1
-0.08,0.1,0.89,-2.8,3.88,18.35,-0.35,1.34,1.71,-8.76,-3.21,6.98,0.98,0.34,-0.51,-2.6,1.15,7.02,1
1.42,0.25,2.24,-38.45,-22.98,-69.05,1.45,0.74,2.31,31.77,-33,47.51,1.73,0.64,-0.51,24.74,12.38,-22.28,1
-0.08,-0.8,2.39,32.35,56.12,-64.16,0.4,1.64,0.96,88.41,110.07,-34.52,0.38,0.94,1.74,-11.39,-209.3,-238.1,1
-0.98,0.25,1.79,20.15,17.55,-10.94,-0.35,1.64,1.71,-0.95,17.78,3.08,0.83,2.29,0.69,-38.74,-18.38,-42.3,1
0.37,-0.35,3.59,2.08,11.2,2.24,0.4,-0.31,1.26,-6.32,29.01,8.45,0.38,1.69,2.19,-19.2,8.48,6.04,1
-0.08,-0.35,2.84,12.82,25.36,-19.73,1.9,-2.26,1.86,3.45,22.18,5.52,0.23,1.39,2.04,25.72,11.89,48.52,1
-0.38,1.15,4.04,33.82,2.41,3.22,2.95,-3.31,0.96,-27.31,29.5,32.86,-0.97,2.14,2.04,-43.62,-6.66,1.16,1
-1.73,0.4,2.84,-18.92,18.04,9.57,3.25,-1.36,3.21,-19.01,12.41,22.61,0.68,1.09,-1.26,-18.72,4.57,22.15,1
0.22,-0.2,2.24,-2.31,12.67,33.98,-0.35,-1.36,3.21,13.7,8.02,-34.03,-0.52,2.59,0.09,-52.9,-37.42,5.06,1
-0.08,-1.1,2.09,7.94,-1.98,-3.13,-1.1,-1.36,0.96,200.71,-208.29,-291.36,0.83,1.24,-0.06,285,56.82,-296.69,1
-0.38,-1.1,2.09,-1.34,-7.84,-2.15,-1.1,-1.06,2.46,3.94,-13.47,6.98,0.23,2.14,0.84,1.79,1.15,5.55,1
-1.28,-2.3,0.14,-4.76,-0.52,0.78,-1.1,-1.06,2.16,-2.9,-2.72,3.08,1.58,1.24,-0.06,4.72,-0.31,5.06,1
-0.38,-2.75,-0.76,-3.78,-4.91,3.22,1.15,0.29,1.11,0.03,2.65,0.15,0.38,0.94,0.69,5.21,-3.24,12.88,1
-1.43,-2.45,0.74,-9.15,-5.89,-12.41,0.4,-1.06,1.71,21.03,-4.19,6.01,0.83,-0.86,0.39,6.67,-4.22,-0.31,1
0.37,-2.3,0.89,-59.93,-203.15,-40.73,2.5,0.44,1.71,-82,179.89,-217.14,1.28,0.19,0.39,139,39.24,348.81,1
0.37,-1.85,-0.31,-46.75,6.32,-149.61,4.3,1.49,3.36,-3.88,-34.46,18.21,2.63,1.84,2.79,31.58,33.87,1.65,1
-1.43,-1.7,0.74,0.62,5.83,1.75,5.35,1.64,3.66,1.98,23.15,7.96,2.33,1.69,1.74,26.69,3.59,6.04,1
-0.38,-1.85,0.14,5.01,-0.52,-15.83,7.15,3.29,4.56,17.12,9.48,-2.29,0.83,1.99,2.49,-6.51,-9.1,-8.61,1
0.82,-1.1,1.64,3.06,-5.89,29.59,9.4,2.84,5.46,10.77,20.22,-5.22,0.98,2.89,2.79,23.28,4.57,14.83,1
1.42,-2.9,1.49,5.99,16.57,18.35,8.95,2.84,7.11,-47.82,39.27,27,2.03,2.29,2.49,-17.74,-0.8,-4.21,1
1.27,0.4,2.09,17.22,8.27,15.91,4.15,-0.31,5.16,-7.78,-21.77,-18.41,2.03,1.69,2.94,-2.6,15.31,7.02,1
0.67,-1.25,1.04,-73.6,29.76,63.28,1.75,-1.81,3.21,-23.41,38.29,-51.61,0.38,0.19,1.44,-79.26,3.59,-42.79,1
-0.68,-0.95,0.29,7.94,3.39,1.75,-0.8,0.44,0.21,12.72,2.65,1.12,-1.27,-0.41,1.29,9.12,3.59,7.99,1
0.82,0.1,-0.31,1.1,12.67,-3.62,-0.2,-0.76,0.81,-14.13,1.67,2.59,-0.22,-0.71,1.14,-8.46,1.64,2.13,1
-1.43,1,0.74,-0.36,-7.84,-0.2,0.25,-0.76,0.36,-1.92,2.16,-2.78,-0.67,-0.86,1.14,-0.65,1.15,8.97,1
-0.68,-1.25,-0.91,0.62,-10.28,0.78,-0.2,-0.46,0.06,1.01,-1.75,-9.62,1.28,-0.26,1.14,5.7,0.18,-0.8,1
-0.83,0.1,1.19,0.62,-6.87,-10.94,-0.2,-0.46,0.36,-1.92,7.04,-1.32,-0.22,0.34,-0.21,3.75,-2.75,0.67,1
-0.08,0.1,-0.76,3.54,-7.84,7.61,-1.4,1.04,-1.14,2.96,-13.47,7.96,-0.22,0.64,-0.96,-3.09,9.45,2.62,1
0.67,0.7,-0.16,5.99,-1.01,4.19,-0.95,0.74,0.81,2.96,-6.63,10.4,0.08,0.19,-1.11,-3.58,2.62,3.6,1
-0.23,-0.2,0.74,0.13,1.92,-0.69,-1.1,0.14,-0.24,-6.32,2.16,-9.13,0.83,-0.26,0.39,-4.07,-9.59,2.62,1
0.82,-0.35,-0.31,-1.34,-0.03,-4.59,-0.5,-0.46,1.11,2.96,5.58,2.59,-0.37,1.99,-1.11,0.82,-11.54,3.6,1
0.22,0.25,0.74,3.54,7.78,10.05,0.85,0.14,0.21,0.52,-12.49,1.12,0.98,0.34,0.09,-11.39,3.59,-7.63,1
0.37,-0.8,1.64,1.1,10.22,4.19,1.9,-1.21,-0.84,-2.9,1.67,13.33,0.68,-1.16,0.54,5.21,0.66,10.92,1
-0.08,0.1,0.74,-2.31,9.74,-1.18,0.25,0.29,-0.84,5.4,8.02,4.05,-0.52,-0.41,-0.51,4.23,-10.57,-5.68,1
0.22,1,-0.46,-8.17,-3.94,4.68,1.45,-0.01,-0.84,-5.34,0.69,9.91,-0.67,0.19,-0.81,-4.56,-3.24,-3.24,1
0.67,1.45,-1.36,-2.8,-12.24,9.08,1.9,-1.06,0.51,-0.95,-0.28,2.59,-0.52,0.64,0.54,-7,-4.22,4.09,1
0.67,-1.25,1.04,11.36,-7.35,-7.52,-0.95,0.74,0.36,8.82,0.69,13.33,-0.22,0.04,0.09,-2.6,0.66,4.58,1
0.22,-0.95,-0.16,14.78,-4.91,-3.13,-0.8,0.14,-0.24,-6.32,-1.26,-0.83,1.28,-0.26,-0.81,6.67,1.15,1.65,1
-0.23,-0.2,0.29,5.5,2.41,-0.2,0.1,0.44,-0.24,-16.08,-1.26,6.98,0.98,0.04,-0.96,-4.07,-14.96,3.6,1
0.37,0.1,-0.31,-4.27,-10.28,0.29,1.3,0.44,0.51,15.17,7.53,-5.71,0.98,-0.41,-0.21,3.26,7.99,2.13,1
0.37,0.4,0.14,-13.54,-2.96,-8.01,-1.1,-0.61,-0.54,-0.95,3.13,-9.62,0.08,0.19,-0.06,5.21,6.04,-1.77,1
-0.98,0.25,-0.46,5.5,2.9,1.75,1.3,0.44,-0.24,-3.88,6.55,-5.22,-0.67,1.24,0.39,4.23,8.96,1.65,1
-0.38,0.4,0.89,-6.22,-2.96,-10.45,0.1,0.14,0.21,1.01,0.21,-7.67,-1.12,0.19,-0.81,3.26,-13.98,3.11,1
0.67,-0.2,-0.16,8.43,-1.49,-1.18,0.7,-0.01,-0.84,1.49,2.16,5.52,-0.52,0.04,-1.71,4.23,-4.71,-6.17,1
-1.03,0.46,-0.38,-5.79,0.24,-2.83,-0.57,-0.02,-0.27,0.43,11.57,-1.17,-0.1,0.41,0.72,0.83,4.18,-4.77,1
0.17,-1.04,-0.38,10.33,-3.67,0.1,-0.27,0.13,-0.12,7.75,-3.56,2.25,-0.1,0.85,1.47,-3.08,-3.14,0.11,1
-1.03,1.21,1.57,-12.13,-4.16,-8.69,0.03,0.13,-0.12,0.43,9.13,-10.44,-0.4,0.56,0.87,-4.55,-8.03,-3.79,1
-1.18,-0.14,-0.53,-0.42,-2.69,-7.22,-1.77,0.28,0.03,10.2,6.2,-4.1,0.2,1.6,-0.48,4.24,-17.79,-6.72,1
-1.03,-0.74,1.12,3.49,-5.13,-4.29,-1.17,-1.07,-0.12,-1.04,13.53,-6.54,-1.15,1.31,1.17,-1.62,-12.91,-5.26,1
-0.58,-1.04,2.02,7.4,-2.69,-0.39,-1.92,0.13,0.93,3.36,2.78,4.2,-0.7,1.31,1.62,-1.13,-6.56,2.07,1
0.02,-1.64,3.82,-28.25,60.3,316.02,-2.67,0.88,4.38,-20.08,-32.37,-49.99,-0.1,1.6,2.07,27.19,-32.44,-11.61,1
0.17,-2.69,3.97,-3.34,19.77,-2.83,-1.47,2.38,8.58,-25.94,59.91,21.78,1.55,2.5,3.42,35,10.04,15.74,1
3.17,-2.69,3.97,11.3,6.1,43.07,0.33,4.78,13.83,-10.31,21.34,-61.71,1.25,2.06,3.12,-49.47,30.06,38.69,1
0.47,-1.64,0.67,20.09,9.52,-42.38,2.73,6.73,13.23,-1.52,20.85,6.65,2,2.81,3.12,14.5,-22.19,1.58,1
0.62,-1.04,0.37,10.33,-58.84,56.25,3.48,5.53,8.88,7.75,-11.38,-146.19,2.45,3.25,2.67,49.17,43.73,57.24,1
-2.23,-1.49,1.12,-101,204.34,602.15,3.48,2.23,4.98,69.28,67.72,-138.37,1.55,1.75,1.17,189.3,-39.28,-282.6,1
-0.28,0.16,2.77,5.93,6.1,-4.78,-0.12,1.03,1.98,5.31,-1.61,4.69,0.5,3.25,0.42,-3.08,4.18,-9.65,1
-0.43,0.31,0.97,8.37,-8.55,-5.27,-0.57,0.28,1.53,-5.43,9.62,-4.1,0.2,0.85,-1.53,-6.01,-1.19,6.46,1
0.02,0.76,0.22,-16.04,10,-1.36,-1.17,0.43,0.18,2.38,-1.12,-1.66,-0.55,1.16,-0.78,9.61,-5.59,-0.38,1
-1.18,-0.44,0.22,6.42,-0.74,-10.15,-1.47,2.08,-0.87,0.92,10.11,-7.03,1.1,0.1,-1.83,-11.38,3.2,-15.51,1
-3.73,2.26,1.42,-34.11,20.26,-23.82,-1.77,1.48,-0.27,106.39,-192.53,31.55,-0.4,1.31,-1.38,1.31,76.93,-79.97,1
-2.53,1.81,1.42,42.07,10.98,-21.38,1.08,-0.77,-1.17,-11.29,13.04,9.58,-0.85,1.16,-1.23,-16.75,-11.45,-2.82,1
-3.28,4.21,0.97,-55.59,-0.74,-117.57,0.93,-1.07,0.93,-49.86,71.63,-63.67,-1.15,2.5,-0.18,-7.48,-28.05,66.03,1
-1.93,2.86,0.82,-38.5,11.96,-103.41,1.53,-1.22,3.93,46.33,3.27,6.16,-1.15,1,0.42,-23.1,-2.17,-26.25,1
-1.93,2.86,0.07,73.8,-32.96,-448.14,0.78,-0.47,0.48,91.25,20.85,-310.74,-0.4,1.31,0.12,63.33,-24.14,69.45,1
2.57,-0.44,-0.53,5.44,5.61,1.08,1.08,-0.02,-1.17,-4.45,10.6,6.65,0.05,1.31,-0.63,-2.1,-5.59,-4.28,1
1.52,-0.74,-0.83,-4.81,-3.18,-9.17,0.93,0.43,-1.62,4.82,1.32,11.04,0.05,-0.05,-0.93,-12.85,6.62,7.44,1
0.77,0.31,1.42,-5.3,10,-2.34,1.53,-0.47,-0.27,-2.5,-7.96,-13.37,0.5,1.75,0.12,3.75,2.23,-10.63,1
-0.28,0.16,0.37,4.96,-2.2,1.08,-0.87,0.28,-0.27,-1.04,7.18,-1.66,0.5,2.06,-2.13,1.31,-5.1,4.02,1
0.62,-1.04,-1.13,-2.86,-8.06,-6.73,-0.12,1.03,-0.27,-3.96,-3.08,-9.96,0.8,-0.05,-0.63,-4.06,-5.59,0.11,1
-1.18,-0.44,0.22,16.19,-12.94,-5.27,0.78,-0.02,-1.17,-8.36,-5.52,-0.19,1.25,-0.5,-0.93,1.31,-3.14,-8.68,1
0.47,-0.14,-0.23,-8.23,7.08,-4.29,-0.57,-1.22,-0.27,7.27,17.43,7.13,-0.7,0.25,-0.63,-10.89,0.76,1.58,1
0.47,0.76,0.67,3,-4.64,-7.22,0.93,-0.32,-0.87,6.78,3.76,1.27,0.2,0.1,0.27,12.54,1.74,2.55,1
-1.48,-0.29,-1.58,0.07,-0.74,-13.08,-0.12,0.73,0.48,-3.96,-1.61,5.18,-0.4,-0.05,0.12,2.78,3.2,3.04,1
0.47,-0.89,0.22,-16.04,-4.16,6.45,-0.12,-0.47,0.48,-1.04,-13.82,-0.68,0.5,1.31,0.42,-13.33,2.71,-1.35,1
-0.58,-1.04,-0.83,-2.37,-11.97,-9.66,0.78,0.73,0.48,-9.34,6.2,1.27,0.5,0.25,0.12,-6.5,-1.68,3.53,1
-0.43,1.06,-0.53,-0.9,-1.71,-4.29,0.93,0.43,0.18,10.68,-6.49,1.76,-0.1,0.85,-0.03,-3.57,-1.68,-1.84,1
-0.58,0.16,-0.38,8.86,2.19,-7.22,0.78,0.28,0.03,10.68,5.22,-8.49,0.8,1,0.42,4.24,-11.45,-10.14,1
2.12,-0.14,-0.23,10.33,-10.5,-7.71,0.33,-0.02,-0.27,1.89,1.81,-7.51,-1.15,1.31,-0.63,-5.52,-6.07,4.02,1
0.02,0.31,-0.98,3.49,-9.53,3.52,0.33,-0.47,0.48,2.87,-0.63,-0.19,0.05,0.25,0.42,-9.92,2.71,-7.21,1
-0.88,-0.44,0.22,5.44,-11.97,3.03,-0.27,0.88,0.63,3.36,4.74,-1.17,0.2,-0.34,0.27,-13.82,-1.68,-8.19,1
0.17,-0.74,0.37,-7.74,-3.18,-1.85,0.93,0.13,0.63,-2.99,15.48,-3.61,1.25,1,-0.18,-1.13,8.57,-2.82,1
0.62,-0.29,-0.83,2.03,-3.18,-4.78,-0.12,-0.47,0.48,-10.8,-6.49,9.09,0.5,-0.05,-0.18,11.08,-17.3,-6.72,1
-1.48,0.16,0.37,-2.86,1.7,-2.83,0.93,0.88,0.18,-1.52,-4.54,-7.51,-0.7,0.56,-0.18,6.68,-6.07,-2.82,1
-0.58,-0.74,0.07,-5.3,3.17,-5.76,-0.72,0.13,0.93,-0.55,3.27,8.11,1.85,-0.65,1.02,-3.08,4.18,-10.14,1
-0.58,-0.29,-0.38,3,3.17,-2.83,-0.57,0.28,0.78,4.82,12.06,13.48,-0.1,0.41,0.27,-1.62,-9.98,7.44,1
0.47,1.06,-0.23,4.96,6.59,1.08,0.93,0.13,0.18,15.57,-3.56,-5.07,-0.1,0.41,0.72,8.64,3.69,2.55,1
-0.58,-0.74,-0.83,1.05,-1.23,-0.87,1.08,1.03,-2.22,3.85,-0.63,-3.61,-0.7,-0.05,1.17,4.73,-3.14,12.32,1
0.62,-1.49,0.82,3,1.7,-6.73,-0.12,-0.02,-0.27,8.24,4.74,-5.56,0.05,-0.5,0.87,-6.99,-9.49,-0.38,1
-0.58,0.91,0.82,1.54,-6.11,5.96,-0.12,-0.02,0.78,14.1,0.34,-2.63,1.25,-0.05,0.12,6.68,-8.52,-5.26,1
-0.43,-0.89,-0.53,-2.37,2.68,-21.38,-0.12,-0.02,0.78,-3.48,-6.49,-10.93,0.2,2.2,0.72,5.22,-2.17,3.53,1
0.02,-0.44,0.22,-2.86,-0.25,9.38,-0.57,1.48,-0.72,6.29,-10.89,1.27,0.2,-0.34,0.27,-7.96,2.71,-6.72,1
0.02,-0.44,-0.98,-12.62,2.68,-21.38,0.93,-0.32,-0.57,-8.36,-11.87,0.3,-1.45,-0.8,0.12,-4.06,-0.7,7.92,1
0.02,-1.19,-0.98,5.93,3.66,9.87,0.03,0.13,-0.57,-2.01,6.2,-6.05,0.5,0.25,2.37,-7.96,-9,-8.19,1
0.74,0.95,-0.28,-1.9,8.61,-9.86,-0.74,0.18,0.22,2.5,-10.15,0.44,-0.83,-0.66,-1.7,-4.14,9.83,-2.04,1
-0.46,-1,-0.28,9.33,-2.62,-0.59,-0.29,0.18,0.52,-3.85,1.57,-6.4,0.97,0.99,0.4,3.67,2.02,3.34,1
0.14,0.35,0.32,-1.42,9.1,-0.1,0.76,0.03,0.07,-4.34,-7.22,-1.03,-0.08,1.14,-0.2,3.18,-1.89,-3.01,1
-0.01,0.2,-0.58,0.05,-7.99,4.79,0.31,0.03,1.12,-0.92,0.11,18.99,-0.83,0.69,0.85,9.53,6.9,-14.24,1
-0.61,0.35,1.97,-7.28,-3.11,-0.1,0.91,-1.02,0.37,-12.64,6.46,-6.4,-1.88,-0.21,-0.35,-5.12,13.74,2.36,1
1.19,0.2,-0.28,8.35,4.71,4.3,-0.74,-1.62,1.27,-1.89,-3.8,4.35,0.52,-0.51,-0.05,-11.46,10.32,-1.06,1
0.44,0.65,-0.28,-2.88,11.54,5.76,-0.44,0.03,1.12,0.55,-6.24,-3.47,-0.98,0.54,-1.85,5.14,-1.89,7.73,1
1.19,0.65,0.17,-7.76,9.1,1.37,0.46,0.18,-0.53,1.52,-7.71,7.76,-0.83,0.39,-0.2,3.67,-4.82,5.29,1
0.74,-0.25,-0.28,-6.79,4.71,6.25,0.76,0.03,0.82,-0.92,-2.33,2.39,0.07,0.54,-1.55,6.6,2.02,-4.97,1
1.04,0.35,-0.43,3.47,1.78,10.16,0.76,0.03,1.12,1.52,-7.71,-16.65,0.07,0.99,-0.05,1.72,4.95,1.38,1
1.19,-0.55,2.57,-34.13,27.66,-591.89,1.81,2.58,3.67,123.59,-93.64,138.14,0.07,1.29,-0.35,-10.98,-32.65,14.08,1
1.49,-1.6,1.52,-42.43,20.33,-24.51,3.16,3.78,6.07,-3.36,9.87,52.69,1.87,2.19,0.85,81.31,41.57,66.32,1
-0.01,-1.75,1.37,1.03,8.13,-17.19,4.96,5.58,13.12,18.12,0.11,-9.81,-0.08,2.94,1.6,16.37,2.02,6.26,1
-0.31,-1.15,2.72,-1.9,22.29,-9.86,9.31,6.48,27.07,29.36,11.83,-3.95,1.27,3.54,1.15,20.76,-3.84,11.15,1
1.04,-1.6,2.72,19.58,24.24,28.71,7.36,-0.12,39.22,-6.78,4.99,23.39,1.27,2.04,1.75,24.18,1.53,13.59,1
0.14,-1.15,4.22,46.92,3.73,-14.26,3.01,-2.07,24.97,-0.43,8.41,64.4,2.47,3.09,-0.8,-12.44,2.5,-12.29,1
1.79,-0.85,1.07,-12.65,13.98,-53.81,2.71,-1.02,13.42,4.45,7.43,-0.54,2.02,2.04,-0.35,-107.17,-10.68,-142.66,1
-0.01,-0.55,1.37,-1.9,-11.41,3.81,3.01,-0.57,2.92,12.27,-8.68,-6.88,1.27,2.34,-1.1,-3.65,0.06,3.82,1
-0.46,-0.25,-0.58,-6.3,3.24,2.83,0.76,-0.27,1.12,-7.27,3.04,-4.93,1.72,0.54,0.4,-12.93,15.2,-0.57,1
-0.31,-0.4,1.07,-2.39,-2.13,5.27,1.21,-0.27,0.82,-0.43,-1.36,-5.42,0.67,0.39,0.85,4.16,5.92,2.36,1
-0.01,-2.2,0.62,-18.02,-13.85,-38.67,1.36,-0.12,2.17,-1.41,-6.24,21.44,1.72,1.74,1.15,4.65,-0.91,-20.1,1
-0.31,-0.85,0.77,-170.36,-143.24,60.45,0.76,-0.72,3.07,-83.93,79.7,-59.13,1.27,1.29,1.15,104.26,67.45,212.32,1
0.74,-3.25,1.67,15.67,-3.11,-32.32,0.31,2.28,5.77,-0.43,8.41,15.58,1.87,1.89,2.05,-51.02,-23.86,7.24,1
-0.46,-2.95,2.12,-9.23,-3.11,-25,1.96,2.28,7.57,4.94,16.71,-14.7,-0.68,2.79,2.95,-21.72,-14.58,5.78,1
0.59,-4.6,3.92,5.91,14.47,85.35,2.41,3.48,9.22,7.38,7.92,-24.46,1.87,2.64,2.35,7.09,-12.14,44.84,1
1.04,-3.1,2.72,-0.44,2.75,17.97,1.96,0.78,11.47,-11.66,1.57,7.76,1.72,3.54,1.75,44.2,-6.28,51.19,1
1.04,-3.55,2.72,-106.88,45.23,-41.6,-0.89,-1.02,5.77,116.76,-144.42,44.39,0.67,1.44,-0.2,-53.46,40.1,-64.05,1
0.14,-2.35,1.52,-3.37,-1.15,-3.52,-1.34,-1.47,2.32,-9.71,-1.85,3.37,-1.43,0.54,-1.55,-285.39,249.58,498.45,1
-0.46,-2.2,0.17,1.03,-7.5,1.86,-0.14,-0.72,1.57,-2.87,-2.82,-1.03,-0.68,2.04,1.45,3.67,1.53,2.85,1
-1.51,-2.35,-1.18,5.42,2.75,-15.23,-0.29,-0.12,0.22,6.41,1.08,-6.88,-0.98,0.24,-0.35,-10,7.39,-3.99,1
0.44,0.65,0.17,3.47,-0.66,3.81,0.16,-0.57,-0.23,11.29,-5.26,-1.51,-0.53,0.09,-0.2,-0.72,-4.33,-5.94,1
2.24,-0.4,0.02,-9.72,7.15,-0.1,0.16,0.18,-0.53,-3.36,-2.33,-6.88,-1.43,-0.51,-0.8,2.21,2.5,-5.45,1
-0.91,-1,0.17,-4.35,-0.66,-9.37,0.31,0.03,0.37,18.61,-3.8,-8.84,0.07,0.24,-0.35,7.09,-1.4,1.38,1
-0.91,-0.25,0.62,14.21,-0.18,1.37,-0.44,-0.27,0.37,5.43,-0.38,-3.47,0.37,1.14,0.85,5.14,12.76,-5.94,1
-0.61,-0.4,-0.43,-8.25,-4.57,-0.59,-0.14,-0.72,0.07,2.99,-4.29,9.72,0.52,-0.81,-1.55,-8.54,1.53,14.57,1
-0.46,0.65,-1.48,2.98,5.2,1.37,-0.29,-0.57,-0.53,-1.89,7.43,-6.88,0.67,0.09,-0.95,-12.93,2.02,-10.83,1
-0.61,0.35,-0.88,-3.37,-16.78,-10.84,1.36,-0.57,-0.23,-4.82,-9.17,-5.42,-0.08,1.14,-0.2,6.11,4.46,-5.45,1
0.14,-0.85,0.32,-5.81,-17.27,-4.49,-0.44,-0.72,-1.58,6.89,6.94,8.74,0.07,-0.51,-1.1,2.21,-3.84,-3.5,1
0.74,-0.25,-1.03,-6.3,7.64,-0.59,-0.29,-0.57,0.97,2.01,-2.82,-0.05,-0.53,0.09,-0.2,3.67,-5.31,0.89,1
0.74,-0.55,-0.28,3.47,-7.99,-5.96,-0.29,-0.87,0.52,1.04,-1.36,-3.95,-0.53,0.09,0.1,-5.61,-15.56,2.85,1
-0.01,-0.25,-0.58,2.49,-4.08,3.81,0.31,-0.72,0.37,2.99,0.11,-2.49,-0.68,0.54,-0.05,8.55,3.48,4.8,1
1.04,-1.9,0.32,2.98,-0.66,-5.47,-0.44,0.03,0.07,-4.34,1.08,-5.91,-0.23,-0.21,-0.35,-3.16,-10.19,2.36,1
-0.46,-0.55,0.62,-1.42,0.8,2.34,0.91,-0.12,-0.23,-17.52,-7.71,3.86,0.67,0.09,0.1,1.23,-9.7,7.24,1
-0.01,0.95,-0.58,-0.93,-14.82,-4.98,0.16,-0.57,0.97,-1.41,-0.38,0.93,0.52,0.54,-0.05,-9.51,-8.24,-3.5,1
0.14,-0.4,0.32,-1.42,-12.87,-11.33,-1.34,0.78,-1.88,-8.73,-0.87,-6.88,0.52,0.54,-1.55,-9.51,4.46,-6.43,1
-0.31,-0.4,0.02,5.42,-10.92,9.67,-1.04,0.63,0.97,-4.82,3.53,-2.49,-0.23,0.54,1.15,-5.12,-16.05,3.34,1
-0.31,0.05,-0.43,-8.25,1.78,-6.93,1.81,-1.62,-0.23,3.48,14.76,7.28,0.97,0.54,-0.35,-4.63,-11.66,7.73,1
-0.01,1.4,-0.58,1.03,4.22,-9.37,-0.14,-1.02,0.37,-12.64,2.06,-1.51,-0.68,-0.81,-0.8,-10,1.04,-2.04,1
-0.46,-0.25,0.62,7.86,0.31,8.2,0.31,0.03,-0.83,2.5,6.94,7.76,-0.23,0.99,-1.1,-6.58,-4.33,-3.01,1
-0.01,0.2,-1.03,-9.23,0.31,-7.91,-0.29,-2.07,0.22,10.8,1.08,-9.33,-0.53,-1.41,-1.25,2.21,-10.19,2.36,1
-0.52,0.16,1.57,0.64,6.14,0.5,-0.55,1.03,0.07,-3.41,9.33,-0.63,-0.98,-1.67,0.57,-4.97,-16.29,15.29,1
-0.37,-0.14,0.22,-3.75,16.88,2.45,-0.85,-0.02,0.52,12.7,9.33,4.75,0.07,-0.62,-0.63,-3.02,1.29,0.64,1
-0.82,-0.89,-0.53,-14.01,-5.09,-8.78,-0.1,-0.77,0.52,-1.46,9.33,5.23,0.97,0.43,0.57,9.68,1.29,4.55,1
1.13,0.16,-0.38,-3.27,-1.67,1.47,-2.5,-0.77,0.07,-2.44,-3.86,0.35,0.97,0.43,1.32,-0.09,-4.57,-8.63,1
-0.37,0.76,0.97,-9.13,7.61,-5.36,-0.1,-0.77,-0.23,-0.97,5.42,-1.6,0.37,1.03,0.72,-0.09,-9.45,-12.54,1
-0.37,0.76,0.97,-6.2,3.7,-12.2,-0.1,0.28,0.07,14.17,-4.83,0.84,1.27,-0.32,0.57,-4.48,2.27,2.6,1
-1.87,1.21,1.57,-1.8,6.14,1.96,-0.25,0.13,0.67,13.19,7.37,1.82,0.37,0.58,-0.03,-4.48,-9.94,11.39,1
-1.57,-0.44,0.67,5.03,13.96,7.33,-1.75,-0.47,-1.13,6.35,1.51,1.82,-0.23,0.43,-0.63,-9.37,-6.52,10.9,1
0.23,-0.74,1.12,4.55,4.19,9.29,-1.3,-0.47,0.52,-16.6,-8.74,-6.97,-1.58,0.28,0.72,8.7,-4.57,-5.22,1
-1.57,-0.89,1.42,0.64,6.14,-9.27,-1.9,-0.32,-0.83,-6.34,5.42,1.33,-1.58,1.03,1.47,1.87,-0.66,14.8,1
-1.12,-1.19,2.17,-22.8,5.17,-10.24,-1.75,-0.02,1.27,-11.23,1.51,5.72,0.52,1.18,0.87,-6.92,-3.59,-14.98,1
-0.97,0.46,2.32,69,-32.92,16.61,-2.05,-0.77,2.77,34.67,32.76,-2.58,0.37,1.03,2.22,-68.45,-11.89,-43.79,1
0.23,-0.74,2.77,4.55,15.42,-5.85,-3.7,-1.97,3.97,-3.41,25.44,-0.14,0.07,1.63,1.92,-29.38,-2.13,-24.26,1
0.53,0.31,0.97,-11.08,29.58,-73.72,-8.05,-1.37,6.82,-28.32,35.21,5.72,0.97,0.13,4.17,17,1.78,14.32,1
-1.12,0.76,-0.53,-5.71,18.35,-39.54,-10.45,-1.82,6.07,45.42,-8.25,-18.2,1.27,0.13,3.42,52.16,8.61,-21.82,1
-0.97,-0.74,-0.83,-276.7,126.75,641.61,-5.95,-1.82,-0.83,34.67,-11.67,-70.94,0.52,0.13,2.67,10.65,-15.8,-49.16,1
-1.57,-0.14,0.22,339.02,271.28,991.16,-0.1,0.28,1.27,43.95,-252.88,99.96,-0.08,0.58,2.97,363.68,18.87,-333.34,1
0.23,-1.49,2.77,-10.1,4.19,0.5,-1.75,1.03,0.07,-2.44,-3.86,-4.53,-0.08,1.33,-0.33,0.89,-5.06,0.16,1
0.23,-1.49,0.07,-11.57,2.72,-4.39,-1.45,1.33,0.97,-9.27,-3.37,1.82,-0.08,1.03,-1.08,-3.02,5.2,-0.82,1
0.23,0.46,1.12,-2.78,12.98,-11.22,-0.25,0.88,1.42,-6.83,10.79,-6.48,0.52,1.93,-1.38,-4.97,-0.66,6.5,1
-2.02,-0.14,1.42,0.15,-2.65,3.43,-2.5,0.28,1.27,6.84,0.54,-4.04,-0.23,0.43,-1.38,-15.22,-2.62,-0.33,1
-1.12,0.76,2.62,-80.42,14.93,68.86,-3.1,-0.62,0.22,58.6,106.49,-9.41,-0.83,2.08,-1.53,-27.92,-81.23,-21.82,1
-1.87,0.46,3.22,-42.33,-2.16,-2.43,-2.65,0.43,0.97,22.47,-26.32,-18.69,0.37,2.08,-1.83,9.19,14.96,-10.59,1
-0.37,1.06,4.12,32.38,25.19,41.51,-0.55,-0.02,3.52,-10.74,28.37,-16.74,-0.98,1.18,0.12,-16.2,-22.15,-12.54,1
-3.07,0.46,1.57,83.65,-5.58,-59.56,-1.15,-1.37,4.87,8.79,11.77,-3.07,-0.08,2.53,-0.03,0.89,13.5,97.32,1
-0.82,0.76,0.97,-285,83.78,448.74,0.8,-0.47,3.52,-17.57,-29.74,34.04,0.07,0.88,1.62,-79.68,13.98,-48.67,1
0.53,0.76,0.97,-163.42,-142.29,-866.69,-0.25,1.63,0.97,420.9,85.01,379.75,-0.53,0.28,0.27,367.1,-43.63,14.32,1
2.33,1.21,0.82,-10.59,-1.18,-1.94,0.95,-0.62,0.22,-5.85,-1.42,-16.74,-0.23,1.18,-1.38,1.87,4.22,-4.73,1
0.08,0.31,0.97,-0.34,-3.13,12.7,-1.15,0.88,-0.53,-4.88,4.44,2.79,0.97,0.13,-0.18,-9.85,-4.08,13.34,1
0.53,-0.14,0.67,1.13,-2.16,-9.76,-0.25,0.43,0.22,-9.76,2.49,0.84,-1.58,-0.47,-0.03,-5.46,12.52,6.5,1
0.23,-0.29,0.07,4.06,0.77,5.38,0.35,-0.47,0.52,11.72,5.42,-0.14,0.07,0.43,-1.38,6.75,1.29,-5.22,1
-0.52,0.46,-0.83,2.59,-0.69,5.87,-0.25,0.13,0.22,-15.62,-10.69,5.23,0.52,1.63,0.57,-16.69,-0.66,-0.33,1
0.23,0.91,0.07,5.03,0.77,-3.41,0.05,-0.32,-0.83,7.33,2.98,3.77,-0.23,-0.32,0.57,-9.85,-7.99,2.6,1
0.83,1.51,-0.23,6.5,-6.55,4.89,-0.85,0.73,0.82,1.47,-6.79,4.26,0.97,-0.32,0.12,-10.83,8.61,3.09,1
1.58,-0.74,-0.83,-4.24,9.56,1.96,-0.7,-0.32,0.67,7.33,-6.79,16.95,-1.28,-0.02,-0.78,-10.83,-6.04,-3.26,1
0.08,1.51,-0.53,-2.78,9.07,1.96,0.05,0.88,0.22,-0.97,-7.28,-6.48,-0.23,-0.32,0.12,-10.34,5.68,-3.75,1
-0.37,0.76,1.42,7.48,14.44,-3.9,0.95,0.43,0.22,-7.32,-6.79,-3.07,0.67,-0.77,1.02,0.89,-6.52,-1.8,1
0.23,1.21,0.37,2.59,0.77,8.8,0.8,-0.47,0.07,6.35,0.54,-5.51,-0.53,-0.02,0.72,-4.48,12.52,5.53,1
-0.52,0.46,0.07,-12.06,7.12,-10.73,1.4,-1.37,0.67,0.49,-10.21,-2.09,0.07,1.18,1.32,8.21,-1.15,1.62,1
0.23,-0.29,-0.38,-3.27,-1.67,3.92,-0.55,0.73,0.07,-1.95,3.96,0.35,0.37,0.58,-0.78,4.31,-1.64,14.32,1
-0.52,0.46,-0.83,1.13,-5.58,-14.64,0.8,-0.02,0.52,1.96,5.42,-6.48,-0.53,-1.22,0.72,5.28,3.24,6.99,1
-0.97,-0.29,1.12,19.68,4.19,-4.39,-0.25,0.43,-0.08,-1.95,7.37,-6.97,0.07,0.13,-0.63,-0.58,-6.04,0.16,1
0.68,0.91,0.82,0.15,-16.32,-3.9,-0.85,-0.02,0.52,2.93,-1.42,-1.6,-1.43,-0.62,1.62,-1.55,5.2,13.83,1
0.83,-0.89,1.42,-2.78,3.21,-14.64,0.5,-0.32,2.92,-1.95,6.88,3.77,-0.68,0.13,-0.63,-6.92,-10.43,17.73,1
0.68,0.46,-1.13,4.55,-3.62,9.29,0.35,1.03,0.52,1.47,6.88,0.84,-1.88,0.43,0.12,-2.53,-14.34,-8.63,1
-0.82,0.31,-0.98,-4.73,9.07,-3.41,-0.7,0.13,-0.83,13.68,-2.39,-6,1.12,-0.47,-0.03,-7.41,-3.59,2.6,1
0.23,0.16,0.07,6.99,-8.99,-3.9,0.5,0.13,-0.53,0.49,5.42,-2.09,0.37,-0.47,0.72,-6.92,2.75,4.06,1
0.23,0.46,0.82,10.89,-7.04,1.47,-1.15,0.88,0.22,5.38,-4.35,1.33,0.97,-0.92,0.12,7.72,0.31,-4.73,1
-1.12,0.76,-0.53,-6.68,-5.09,2.94,0.35,-0.02,-0.23,2.45,-11.67,-3.55,-0.98,-0.32,-0.18,-10.34,-6.04,1.13,1
-0.52,-0.74,1.12,2.1,-0.21,1.47,-0.1,-0.02,-0.23,-7.81,-1.9,-0.63,-0.08,0.58,0.27,13.1,7.64,-4.73,1
0.67,1.48,0.1,7.51,-0.45,-9.11,0.45,-0.53,-0.45,-9.69,4.22,2.98,-1.35,-0.99,-1.12,7.79,-0.73,-10.09,1
-0.68,-0.47,-0.65,-16.9,-2.89,-9.6,-0.75,-1.58,1.35,-0.9,-6.52,-2.39,0.6,1.56,-0.82,-2.95,-3.17,5.04,1
-0.38,0.13,-0.5,6.04,5.9,5.05,-0.9,0.07,-0.3,-4.32,10.08,0.05,-0.15,-0.69,-0.37,-0.02,-1.71,-3.75,1
-1.28,0.43,-0.5,-0.79,0.53,2.61,0.3,-0.98,0.15,-0.42,-9.94,4.44,0.6,0.06,0.38,-1.49,-8.54,5.53,1
-0.68,-0.47,0.1,-4.21,11.27,7.98,-0.15,-0.68,1.2,7.4,-11.4,-1.9,-0.6,-0.39,-0.37,3.88,-1.71,10.41,1
-0.83,-1.07,0.7,8.97,5.9,-10.58,0.45,-0.53,0.3,8.86,0.81,2,-0.6,0.36,2.18,-2.47,1.71,-3.26,1
-0.08,0.88,0.7,5.56,0.53,1.14,-0.15,-0.68,-0.3,-3.83,-11.4,-2.39,-0.9,0.81,-0.82,-0.02,-1.71,-7.16,1
-0.98,-0.47,-0.35,-7.14,6.39,1.63,-0.3,-1.58,0.3,3,3.74,0.05,-1.35,-0.69,-0.82,-1.98,-5.62,-5.7,1
-1.73,-0.77,2.2,3.12,6.87,-24.25,-0.45,-0.23,1.65,-0.9,3.74,7.37,0.6,1.56,1.43,0.46,7.08,0.16,1
0.22,-0.47,4,40.22,22.01,-33.04,0.75,0.07,6.15,-41.92,44.26,73.78,1.05,1.86,1.43,-38.11,14.4,-58.43,1
0.37,0.13,2.2,-6.16,5.41,-13.99,7.95,-1.43,11.1,5.44,52.56,41.55,2.1,2.91,2.18,-6.86,-0.73,-1.79,1
0.22,-0.92,-1.1,52.92,20.55,2.61,13.35,-2.03,11.7,14.72,1.29,112.35,4.95,3.66,4.43,3.88,0.73,4.07,1
-0.68,-0.17,-0.65,31.44,-9.24,-122.88,13.5,-2.18,11.1,-55.1,32.54,38.62,3.6,2.46,3.53,13.16,2.69,14.81,1
-0.38,-0.32,-0.05,136.9,-70.27,-125.32,2.4,-0.23,2.4,-14.58,-50.46,288.62,2.7,2.01,2.03,8.76,8.06,-81.87,1
1.27,-0.32,0.7,-20.81,-7.77,7.49,0.15,-0.08,1.8,-433.03,416.82,-1130.32,1.35,1.86,1.73,347.14,368.9,-1050.62,1
-0.68,-1.22,0.55,0.67,-5.82,-0.32,-0.3,-0.08,1.8,6.91,3.25,7.37,1.2,0.96,-1.27,1.44,-11.47,6.51,1
-0.98,-1.67,1.3,-11.53,-7.29,-0.81,-0.9,0.82,1.2,-1.88,16.43,9.81,-0.15,0.81,-0.82,93.73,-10.01,-84.31,1
0.37,-1.82,1.45,1.65,2.97,-4.23,-0.45,0.07,1.95,3,11.06,4.44,-0.45,2.46,1.28,-1,-0.24,-2.28,1
-0.98,-1.67,1.3,-7.14,-62.95,-67.22,-2.7,-1.58,3,37.67,-23.61,-62.45,1.05,2.91,1.43,-17.6,-10.99,-7.65,1
-0.98,-2.12,3.25,5.07,13.71,-11.06,-1.35,-3.68,7.35,-5.3,21.31,8.84,-0.9,4.86,3.68,5.35,2.69,4.07,1
0.97,-1.67,3.25,22.16,-11.68,7,1.5,-3.68,11.55,-0.42,40.84,-31.2,1.8,6.66,2.93,50.76,-34.42,4.56,1
0.22,-2.12,1.6,21.67,-2.89,-14.48,3.9,-1.43,11.55,25.95,-35.82,-26.81,2.55,8.01,4.43,-52.27,87.65,83.17,1
-0.08,-1.82,1.9,-254.7,133.83,645.67,5.4,-0.53,7.95,-20.92,27.66,-12.16,1.8,6.66,3.68,6.32,-40.77,-6.67,1
0.97,-1.22,0.85,371.28,-298.3,991.8,4.8,0.82,7.35,96.75,-49.49,354.05,2.7,4.26,3.08,461.4,-24.66,-423.67,1
1.27,-0.32,-0.05,8.97,1.99,-5.69,0.15,1.12,2.55,2.51,10.08,0.05,2.4,2.46,-0.52,1.44,7.57,11.88,1
0.67,-0.17,0.55,0.67,-4.84,6.51,0.75,-0.68,0.9,-0.42,3.74,-6.3,2.1,-0.39,1.13,2.42,3.66,1.14,1
0.97,0.73,-0.65,-6.65,-3.87,7.98,-0.3,-0.08,1.05,-1.39,-0.17,1.51,0.6,-0.39,0.68,-0.51,-6.59,3.58,1
1.27,0.43,0.7,0.19,11.76,9.93,-1.35,0.52,0.45,-8.72,-12.87,-2.39,0.15,-0.99,0.38,2.42,-7.57,2.6,1
-1.43,0.28,-0.35,-11.04,1.5,3.1,-0.15,-0.68,0.15,4.96,9.11,-7.28,-0.15,0.36,-0.07,1.93,6.59,-6.67,1
0.22,1.48,2.05,2.14,14.2,5.05,-0.3,-0.08,0.3,-13.11,5.69,-0.93,0.15,0.36,-1.12,-2.95,-8.54,-5.21,1
0.82,0.43,1.45,-3.72,6.39,3.58,0.75,0.82,0.45,-3.34,-8.47,5.91,0.75,0.21,0.83,-1.98,-13.43,8.46,1
1.72,-1.07,-1.25,-5.67,5.9,0.65,1.2,-0.23,-0.75,2.03,-8.47,6.88,-1.2,0.96,-1.72,0.95,-10.99,-0.33,1
1.42,0.28,0.55,2.14,3.95,-11.55,-0.45,0.52,0.45,1.05,-3.59,-5.81,0,-0.09,0.08,8.28,-2.2,6.02,1
1.27,0.13,0.25,-0.79,-1.43,-1.3,-0.3,-0.53,-0.45,-12.13,6.67,6.4,0.6,-0.39,-1.12,-1.49,0.73,-8.14,1
-0.08,1.18,-0.05,2.14,0.04,10.42,-1.5,-0.08,-0.45,-8.23,6.18,7.37,0.6,-0.39,0.38,-7.84,7.08,-1.79,1
0.67,-0.17,-0.35,5.56,7.85,3.58,-1.05,1.87,-1.2,11.3,3.74,-11.18,-0.45,-0.84,-0.52,-9.3,5.13,-7.16,1
0.97,-0.92,-0.35,13.86,-7.29,5.05,-1.35,-0.23,0.45,0.07,4.22,1.51,-0.15,-0.39,0.38,3.39,8.06,-2.28,1
-0.23,0.28,-0.65,-0.79,-7.29,0.65,-0.45,-0.23,0.15,7.89,-12.38,7.37,1.35,-0.39,-0.07,-7.84,6.59,7,1
-0.08,0.13,0.25,11.9,6.39,1.14,0.15,-0.53,-0.45,9.84,1.29,-3.86,1.05,-0.69,-0.37,8.28,-2.2,-4.72,1
-1.28,-1.07,0.7,1.16,3.95,-5.69,-0.9,0.52,-1.05,-6.27,-5.05,-1.42,0,0.96,-0.22,9.74,-10.5,-6.67,1
-0.23,0.73,0.1,-2.26,-0.45,6.03,-0.45,-0.23,0.45,-0.42,-1.15,3.95,0.75,-0.54,0.08,8.28,8.54,6.02,1
0.22,-0.17,0.1,-6.16,-2.4,-3.74,0.9,-0.83,0.6,0.56,3.74,1.03,-0.6,0.81,-0.37,-1.49,15.87,4.07,1
0.97,-0.92,-1.1,0.67,6.39,-8.62,0.9,1.42,0.3,2.51,9.11,8.35,-0.45,-0.84,-0.52,6.32,-0.73,-3.26,1
-0.83,0.13,-0.05,-6.65,1.99,12.37,0.45,0.67,-0.45,3,7.15,2.98,-0.75,0.51,-0.22,3.88,-4.64,1.63,1
-0.38,0.43,-0.05,7.02,1.99,0.17,0.3,-0.23,0.45,-5.3,-0.66,-4.35,0,-0.09,0.08,0.95,-4.15,2.11,1
-0.23,-2.12,-1.85,6.04,-5.82,-0.32,0.75,-0.68,0.45,21.07,-2.61,6.88,0.15,0.06,0.38,-11.25,-7.08,-10.58,1
-1.28,0.88,-0.05,-0.79,-1.91,3.58,0.45,0.22,0.6,-2.86,-8.47,6.88,-0.9,0.81,-0.07,11.21,-6.1,2.6,1
-0.23,-0.47,-1.85,0.67,11.76,-6.67,-0.9,-1.43,0.15,0.07,1.78,-0.93,0.15,0.06,-1.57,-1.49,3.17,-0.33,1
-0.08,0.43,-1.7,1.16,9.8,7,-0.9,-0.98,1.2,-8.72,-1.64,4.44,1.05,0.06,0.38,3.88,7.08,11.39,1
0.67,0.28,-0.35,-11.53,5.9,7.98,-0.15,-0.23,0.15,6.91,6.67,7.37,0.45,0.21,0.08,-13.21,-7.08,-1.3,1
-2.34,0.02,0.81,-2.01,-8.79,15.13,0.76,1.01,-1.61,-0.18,-4.27,-4.29,-0.79,0.58,0.01,13.17,4.16,3.21,1
-1.29,0.17,-1.29,14.11,-3.91,-0.99,1.21,-0.19,-1.31,5.68,-2.32,5.96,0.41,-0.02,0.76,2.92,-11.96,-7.05,1
-1.74,0.17,0.66,6.78,3.91,-1.47,1.21,-0.49,0.64,0.31,-2.81,4.01,-0.94,0.88,1.36,-5.87,6.11,9.07,1
-1.14,0.47,-0.69,10.69,4.88,-1.96,0.16,0.11,0.04,1.28,-4.76,6.45,-0.64,0.43,0.61,-0.01,-3.17,-0.7,1
-0.69,0.02,-0.69,9.22,2.93,8.29,-0.29,0.86,0.04,-1.65,-7.2,-2.34,0.71,-1.22,1.06,9.76,2.69,0.77,1
-1.74,0.17,-0.09,9.22,2.44,4.87,-0.44,0.56,0.64,-6.04,-0.85,-5.27,0.11,-0.32,-0.14,11.71,5.13,-1.67,1
-1.89,1.22,-1.14,-3.96,-4.39,1.46,-0.89,-0.49,-0.11,6.17,-1.34,5.96,-0.64,-0.62,0.16,0.48,-1.22,7.6,1
-1.29,-0.88,0.66,4.34,-1.95,10.24,0.01,-0.19,-0.11,-1.65,-7.69,4.01,0.11,0.13,-0.14,1.94,-0.24,2.23,1
-1.89,1.97,-0.24,3.85,-9.28,5.85,-0.29,-0.34,1.24,3.73,9.4,0.59,0.11,-0.62,1.66,1.94,-1.7,-5.58,1
-3.84,2.12,3.06,3.85,-5.37,-10.75,-0.44,0.26,-0.11,7.63,3.05,8.89,0.71,0.28,0.76,14.64,-0.73,-5.58,1
-2.94,2.57,5.46,-2.01,31.25,27.82,0.01,1.01,2.59,17.4,-8.67,30.38,-0.79,1.33,1.06,16.59,-43.7,-53.92,1
-8.04,0.62,13.26,18.01,18.07,8.78,1.06,2.36,4.24,-24.59,26.98,-13.57,0.56,1.18,1.36,2.92,13.92,-12.42,1
-4.29,-1.33,21.21,-3.96,18.07,17.08,1.81,1.61,3.94,51.58,-36.01,231.55,1.01,1.63,2.41,0.97,-3.17,-10.46,1
-4.44,-1.18,12.36,53.66,16.6,-184.09,3.01,1.61,3.94,-12.88,25.02,1.08,1.46,0.28,2.26,-53.23,-16.84,-44.16,1
-2.49,1.07,1.41,159.61,-142.09,-651.87,0.76,-0.49,2.14,75.01,-29.17,-63.37,-1.24,-0.02,1.51,-105.97,144.29,546.18,1
-2.19,1.37,0.36,4.34,2.44,-3.92,0.16,1.16,-1.16,0.31,2.08,8.4,1.01,0.13,0.91,-1.96,2.2,1.26,1
-0.84,1.82,1.11,-3.47,-0.49,6.34,-1.04,1.91,-0.71,2.75,-0.85,1.08,-0.04,0.58,-0.29,1.46,-5.61,-3.14,1
-0.84,1.37,-0.09,-3.96,-3.42,-5.38,0.31,1.01,-0.11,3.24,3.05,4.5,0.56,0.88,-0.59,10.24,-8.54,6.14,1
-1.59,3.17,-0.24,13.62,-8.79,-17.59,-0.59,1.91,-0.26,1.28,5,4.5,0.11,0.88,-0.59,-4.4,-2.19,7.11,1
-1.14,2.72,3.96,-23.98,25.88,9.76,0.16,1.61,0.49,-20.69,6.47,12.8,-0.04,0.58,-1.79,-3.92,-5.61,-6.56,1
1.56,5.27,14.01,4.83,25.39,-11.24,-1.04,1.61,0.04,-3.6,-1.34,3.52,0.71,0.28,-0.29,26.36,10.5,-1.67,1
6.21,7.97,16.41,5.32,14.65,123.53,-0.29,1.61,1.54,28.14,-6.23,-10.64,-0.49,1.03,-1.04,-4.4,-3.66,-6.07,1
5.76,7.67,9.36,-104.55,-26.37,35.15,1.06,2.36,2.29,133.12,-36.01,25.01,1.16,-0.47,0.01,10.24,28.08,-26.58,1
2.46,2.57,3.06,175.73,-30.27,-80.09,1.06,1.91,1.54,58.9,47.49,-389.06,0.11,0.88,0.61,33.19,135.01,197.54,1
1.41,1.52,0.81,3.85,-1.95,8.29,-0.89,0.56,0.64,-3.11,-3.3,4.99,-0.49,-0.02,-0.29,-7.82,-0.24,10.04,1
-0.09,1.82,-0.54,4.83,9.77,-0.01,-0.89,1.01,-0.11,-9.95,-2.32,-1.85,0.11,1.18,0.16,-0.01,10.99,-1.67,1
-1.59,0.77,0.81,5.81,-13.18,3.41,0.76,1.01,-0.11,-6.04,-12.08,-1.85,0.11,0.13,-0.59,4.38,-5.12,-8.51,1
-1.89,0.77,0.81,7.27,2.93,-4.89,1.66,0.26,-2.36,5.19,-2.81,-7.22,0.41,1.03,-0.29,-4.4,-10.49,2.23,1
0.81,-0.88,-0.09,7.27,8.3,3.9,0.16,0.11,-1.16,8.12,-5.74,-5.27,-0.19,-0.32,-0.14,11.22,3.18,2.72,1
-2.19,0.62,-0.84,5.81,-0.49,11.71,0.31,-0.94,-0.86,-8.48,-9.64,-4.29,-0.79,0.58,1.06,5.85,2.2,9.56,1
-1.89,0.77,-0.24,19.48,-1.46,-6.36,0.31,-0.19,0.94,8.61,2.08,-17.96,-1.39,-0.32,-0.14,5.36,-3.17,7.6,1
-0.54,1.82,0.36,-1.03,-7.32,12.69,0.61,0.41,-1.16,4.21,-12.57,-9.17,-0.19,-0.32,-0.89,9.27,-5.12,-4.12,1
-1.74,1.82,-0.09,17.52,4.39,-0.01,0.31,-0.49,-0.86,-11.9,1.1,9.38,-0.79,-0.47,0.31,-0.99,5.13,7.11,1
-0.84,1.07,0.66,16.55,2.93,2.43,-0.44,0.26,-0.11,2.26,-10.62,2.54,0.41,-0.47,0.31,-8.8,1.23,-3.14,1
-2.49,1.07,-0.84,7.76,-3.91,3.9,-0.59,0.41,-0.26,12.03,3.54,-7.22,-0.79,0.28,-0.74,-0.99,10.5,6.14,1
-1.74,1.07,-0.54,6.29,4.88,2.43,-0.59,0.11,-0.26,-5.06,-4.27,-9.66,-0.49,-0.77,-0.29,-8.31,2.69,8.58,1
-0.54,1.07,-0.54,0.43,-12.7,-1.96,-0.29,0.41,-0.26,-8.48,3.05,8.4,1.31,-0.32,-0.14,7.31,-4.63,-4.6,1
-1.59,-0.43,-1.89,-2.5,-2.44,5.36,0.61,0.11,-0.26,0.8,-6.23,-8.69,1.01,0.43,0.91,11.22,10.99,15.9,1
-0.69,1.22,-1.44,-0.05,-1.46,6.83,-0.44,0.56,0.19,1.28,-14.53,-2.34,-1.39,-0.32,1.36,-5.38,3.18,2.23,1
-1.89,-1.18,-0.24,6.29,-2.44,-9.29,1.36,0.11,0.49,3.73,0.12,1.57,1.01,0.13,0.61,-1.96,22.71,13.46,1
-1.14,1.22,-0.69,-5.42,7.81,-1.47,-1.04,-0.64,0.79,-1.65,-6.71,4.5,1.31,0.88,0.61,-5.38,-2.68,-9.49,1
-0.84,-0.13,0.66,9.71,-3.91,7.31,0.61,1.61,0.04,-3.11,2.08,7.92,-0.79,-0.77,1.51,-6.36,4.64,10.04,1
-0.24,1.22,0.81,9.22,4.39,-10.26,0.01,0.56,-0.86,6.66,-7.2,3.03,-0.49,1.03,0.01,-3.92,12.46,5.16,1
-1.89,-0.43,-0.69,2.88,1.95,-2.45,-0.44,1.01,0.64,5.19,-9.16,-3.8,0.41,0.28,-0.74,0.48,4.16,-5.58,1
-1.14,0.77,-0.24,6.78,-3.42,1.46,0.01,1.76,0.64,-1.65,-0.85,-0.39,-0.49,-1.52,2.26,2.43,11.97,11.02,1
-0.24,0.47,0.51,11.18,-12.7,3.9,-0.29,0.86,0.04,7.63,-1.34,-6.24,-0.79,-0.02,0.31,-2.45,9.53,2.23,1
-1.29,0.62,-0.84,-6.89,0.49,-3.92,0.31,-1.69,0.94,-6.04,3.54,2.54,-0.04,0.28,1.06,-6.85,-2.19,-0.21,1
-1.89,-0.43,-0.69,14.11,0,-6.85,-0.44,0.56,0.19,-6.04,-7.2,0.1,-0.79,0.28,0.01,4.87,1.71,-4.12,1
-2.34,0.47,0.06,11.18,-8.79,2.43,0.76,-0.19,-0.86,-6.53,-8.18,-0.39,0.41,0.58,1.51,12.2,8.55,0.28,1
-0.84,-0.58,-0.54,-4.45,-7.81,-4.4,1.21,-0.19,0.64,-6.53,0.61,-2.83,-0.19,0.43,2.71,-9.78,-0.73,0.77,1
-0.49,0.94,-1.45,12.7,0.6,0.82,0.93,0.45,-0.28,-11.4,-0.07,5.08,0.52,0.25,0.6,-2.06,0.52,3.44,1
-1.54,-0.56,-0.4,-1.95,-1.84,6.67,0.93,-1.05,-0.28,13.02,-6.9,2.64,0.67,0.85,0,-3.53,-5.34,12.72,1
-1.69,0.49,0.2,5.38,7.92,-5.04,-0.12,0,1.07,-1.63,0.91,8.01,1.12,-0.2,0.75,2.33,3.45,3.44,1
-0.79,0.49,0.95,-2.92,5,-9.93,-0.87,0.75,-0.13,-2.61,-2.02,9.97,-0.08,-0.2,1.2,11.12,-7.29,-8.76,1
-1.24,0.94,0.2,7.33,-2.82,1.79,1.53,-0.45,0.62,-11.4,-0.56,-3.22,0.52,1.45,-0.45,-6.94,-5.34,-5.83,1
-1.24,-0.26,1.7,-11.23,2.07,-3.58,1.38,1.65,0.77,4.23,5.79,-0.78,-0.53,-0.2,0.75,-5.48,5.89,1,1
0.26,0.34,-0.4,7.82,5.97,-46.06,1.38,-0.3,-0.28,1.3,0.42,30.96,1.27,1.45,-0.9,14.05,-14.61,-33.18,1
-0.49,1.24,0.65,68.85,89.47,322.59,-1.92,1.65,2.42,-15.79,38.51,53.91,1.87,1.15,0,-24.03,-145.96,-342.26,1
-1.09,-1.31,1.55,7.82,6.95,13.51,-1.47,1.65,2.72,-7.98,24.83,-0.29,1.72,1.45,2.1,-21.59,-4.85,-12.18,1
-0.49,0.49,2.9,-0.48,28.92,9.12,-0.87,0.75,6.02,-0.65,15.07,-6.15,0.97,1.75,2.1,51.16,3.45,26.39,1
-0.64,0.64,3.5,5.86,24.04,46.23,0.18,1.35,6.62,16.92,-20.58,18.27,1.72,2.5,2.1,51.65,-2.9,31.27,1
-0.64,0.64,2.75,-64.94,-40.42,-101.24,-0.12,-1.2,4.82,-18.72,34.6,130.57,0.52,1,-0.15,147.84,-5.34,171.9,1
-3.19,-0.11,0.05,-3.41,5,-6.51,-0.12,-1.95,0.62,6.18,11.65,9.48,1.87,-0.65,1.2,343.15,-120.08,59.11,1
-1.54,0.34,-0.4,12.7,0.11,18.39,0.78,0,0.62,5.69,-2.02,-6.15,1.87,0.4,1.95,3.8,-12.66,-1.93,1
-1.54,-0.86,0.35,5.86,-3.31,-14.81,0.78,0,1.07,6.67,-0.07,-11.52,0.67,0.1,0.45,-10.36,-13.15,-3.88,1
-0.79,-1.46,0.2,-78.61,-159.07,21.32,0.18,-0.3,2.42,-59.74,64.38,-291.79,-0.23,0.7,0.3,128.31,76.21,276.39,1
-0.64,-1.61,-0.4,5.86,-6.72,34.51,1.83,-0.3,5.87,16.92,-0.56,-6.64,1.72,2.5,2.4,24.31,-14.61,-7.3,1
-2.14,-1.91,2.15,40.04,7.92,-0.65,1.53,-1.5,16.67,25.22,-15.21,-5.66,1.72,3.25,3.6,19.42,6.38,-3.39,1
-0.04,-4.16,1.7,15.14,-22.35,3.75,-0.27,-8.1,18.77,4.72,19.46,59.77,0.37,3.7,4.5,51.16,7.36,39.58,1
-1.84,-3.26,2,-113.76,34.29,-69.99,-0.27,-4.35,10.37,181.96,-269.6,52.45,-0.23,2.5,2.85,-22.08,32.26,-57.59,1
-1.84,-1.31,1.1,-11.23,-2.82,1.3,-0.87,-1.2,1.82,1.3,-4.46,10.94,-0.83,0.85,1.95,0.87,-4.36,0.51,1
-1.54,1.39,1.1,-1.95,-9.65,0.82,-0.42,-0.45,-0.43,-4.07,0.91,0.2,-1.43,0.25,1.65,4.78,-1.43,-9.74,1
-2.89,-0.71,0.65,13.68,-3.31,1.79,0.18,-1.05,0.02,5.69,4.33,-16.4,0.07,1,1.05,9.17,-7.78,-15.11,1
-1.09,0.34,-0.4,22.47,-7.21,3.75,-0.12,-0.75,-0.13,1.79,-1.04,-2.73,0.67,-0.65,1.2,-5.97,5.41,3.93,1
-2.44,-0.71,-1,1.47,1.58,12.53,-0.42,0,-0.43,2.28,6.77,8.01,-0.08,0.1,-0.3,2.33,3.94,11.74,1
-1.24,0.94,0.65,-3.9,-3.79,-0.65,0.33,0,-0.13,1.79,1.88,6.55,0.07,-0.05,0.3,7.71,4.43,-9.74,1
-1.54,-0.11,0.8,4.89,-13.56,1.79,0.33,1.5,-0.43,-7.98,-4.46,-10.05,-0.23,-1.55,1.65,4.29,-5.83,1.98,1
-1.24,0.49,-0.55,-2.92,-6.72,-9.93,0.33,-0.45,-0.13,7.16,-13.25,-6.15,-0.08,0.4,-0.6,7.71,8.33,-9.25,1
-0.49,-0.71,-0.25,1.96,-9.65,-2.11,-0.12,0.75,0.62,-7,2.37,7.52,0.37,0.4,-1.05,12.59,-7.78,-2.91,1
-0.64,0.34,0.05,-3.9,11.83,-4.56,-0.72,-0.6,-0.28,-4.07,-2.02,-9.08,0.37,0.1,0,5.75,-4.36,7.35,1
-1.69,0.04,-0.55,-3.41,3.53,9.6,0.18,0.15,-1.78,-4.07,-3.49,2.64,0.37,-0.2,-0.3,-17.69,-10.22,-0.95,1
-2.44,0.49,-0.25,-2.44,1.58,-16.27,0.33,0,0.62,6.67,-3.49,-2.73,2.62,-0.95,0.45,9.66,-2.9,2.95,1
-0.49,-0.26,-1.45,3.91,-2.82,0.33,-0.42,-1.95,-0.88,3.74,4.81,16.8,-0.68,0.25,1.05,-0.6,-7.29,1,1
-2.29,0.34,-0.85,6.84,-9.17,-3.09,-0.72,-0.6,-0.28,-5.05,6.28,3.13,-0.68,0.25,0.3,-6.46,6.38,5.4,1
-1.24,0.49,-1.75,6.84,-3.31,8.63,-0.12,0,-0.43,-3.58,0.91,-1.27,-0.53,0.1,0,-4.01,6.38,1.98,1
-1.69,1.24,-0.25,-1.95,7.44,-2.6,0.48,0.15,0.47,-14.33,4.81,3.62,0.07,0.25,-0.45,10.15,6.38,-1.93,1
-2.44,0.49,-0.25,1.96,-3.79,7.16,0.33,0,-0.13,-4.07,1.88,-6.15,0.67,0.1,0.45,-3.53,-6.31,10.28,1
-2.29,-0.11,-0.4,8.31,0.11,9.6,-0.27,-0.3,-1.03,3.25,4.81,-11.52,-1.43,-0.05,1.05,-2.55,-3.38,-2.91,1
-0.79,0.04,-0.25,-1.95,-3.31,-8.95,0.18,0.9,-1.03,5.69,5.79,-2.24,-0.23,0.25,0.6,-7.92,-4.36,-0.95,1
-0.49,0.49,-0.25,-6.34,-9.65,0.82,1.23,0,1.07,8.13,-6.42,-1.27,1.12,-0.65,0.45,12.1,1.01,-1.44,1
-0.49,0.94,0.2,-3.41,4.02,-14.32,0.93,-0.6,0.47,-4.56,-0.56,-9.57,0.52,-0.8,-0.9,9.17,5.41,7.35,1
-1.24,1.24,0.95,8.31,-8.19,9.6,0.78,0.3,-0.43,-3.1,-6.42,7.52,-0.23,0.25,-0.45,2.82,-9.73,6.37,1
-2.14,1.24,-0.25,1.96,-5.75,0.33,-0.27,-0.3,-0.28,2.76,-5.44,-3.71,-0.53,0.4,-0.3,3.31,-0.94,-1.44,1
-1.24,-0.71,-0.25,0,9.88,-5.53,-0.12,-0.75,-0.88,5.21,-8.86,-2.24,0.97,0.7,-0.45,-3.53,8.82,1,1
-2.14,-0.26,-0.25,6.35,-9.65,3.75,-1.47,-1.05,-0.28,-8.96,0.42,-3.71,0.07,-0.5,-0.9,0.38,-8.75,2.47,1
-2.29,0.34,-0.4,6.84,12.32,5.7,-1.32,0,-0.43,-2.61,5.3,7.52,1.12,0.4,-0.6,-4.5,-1.43,3.44,1
-0.64,0.34,-1.15,-3.9,3.04,-0.16,-0.42,0,-1.63,6.18,-5.93,1.66,-1.28,0.1,-0.3,-13.29,3.94,4.91,1
-2.29,-0.86,-0.4,6.35,5.48,-3.09,-0.72,0.45,0.77,11.55,-6.42,-4.68,1.87,0.4,-0.3,-2.55,5.89,-1.93,1
-1.69,1.24,1.7,-10.74,13.3,1.3,0.18,-0.3,-0.28,10.58,-10.32,-10.05,0.07,0.7,-0.9,11.12,7.85,-14.62,1
-3.34,-0.26,-0.25,-4.88,1.58,2.77,-0.42,-0.45,-0.13,-1.14,9.21,-11.03,-0.23,-1.1,-0.45,-1.57,-3.87,-6.32,1
-1.41,-0.76,-0.79,2.16,2.8,2.95,0.08,-0.61,-0.35,3.43,3.23,-2.33,-0.13,0,-0.35,7.92,6.72,-8.1,1
-0.81,0.29,1.46,-3.7,-5.01,8.32,-1.12,-0.31,0.7,-6.83,5.67,-10.63,0.02,0.15,-0.2,-4.28,0.86,-8.59,1
-1.56,-0.91,-0.19,6.06,-3.06,0.51,0.38,0.74,0.25,2.94,6.16,-9.65,0.17,0,0.1,1.58,9.16,-3.71,1
-1.56,-0.16,-0.49,-7.12,-0.13,-11.7,-1.12,0.14,-0.05,-17.08,9.09,-0.86,0.02,0.15,-0.8,-5.26,-0.61,11.43,1
-2.46,-0.46,1.46,8.02,-4.03,4.41,-2.47,-0.01,2.05,-6.34,-3.61,-5.26,-0.58,0.3,0.85,5.97,-19.65,-6.15,1
-0.81,0.29,2.66,96.88,25.26,47.38,-1.87,0.14,1.6,-66.4,14.95,-67.76,0.02,0.9,0.55,61.64,-22.09,-76.95,1
-0.51,-0.31,2.36,-1.26,12.57,-3.4,-3.67,-0.76,2.8,9.78,13.97,13.78,0.62,0,2.2,-7.21,13.07,-7.61,1
1.29,0.74,2.66,-5.65,28.68,5.39,-5.17,0.14,4.6,-11.22,27.64,-2.33,1.22,-0.15,4.6,-1.35,-5.49,10.45,1
-0.51,0.14,0.41,75.4,20.87,-126.93,-6.97,1.79,5.5,12.71,21.29,-3.31,3.77,0,4.45,31.85,-16.72,46.59,1
-1.56,-0.16,-0.94,51.96,-28.94,-271.95,-4.12,2.24,1.75,70.81,-45.6,-82.9,4.37,-0.6,3.55,4.02,6.72,-9.08,1
-1.11,-0.16,-0.94,-718.06,-1584.6,-477.03,-2.92,0.29,-2.45,126.47,2.74,-314.83,0.17,-1.5,0.4,-7.21,-63.11,20.71,1
-0.21,0.14,1.61,12.9,1.34,0.02,-1.12,-0.61,0.7,0.5,11.04,5.97,1.82,0.3,-1.1,-9.17,-12.32,5.57,1
0.69,-0.31,0.86,0.69,-2.08,-4.37,-0.82,-0.76,0.25,-11.71,9.58,-11.61,1.82,1.05,-0.65,-0.86,-6.46,0.2,1
0.54,1.04,2.66,1.67,-1.59,-3.4,-0.52,0.29,1.3,0.01,6.65,-0.86,2.12,0.75,-0.35,9.88,-6.46,7.52,1
-2.46,-0.16,1.46,-20.3,-15.26,-22.44,-0.07,0.74,1,-10.73,10.06,-0.86,-0.88,-0.45,0.4,8.41,5.25,6.06,1
-1.41,-0.31,2.81,10.46,-19.17,-20.98,-3.07,-1.81,4.15,-6.83,5.67,133.41,-0.43,2.7,0.55,44.06,23.32,-22.26,1
-1.41,-1.51,2.06,-21.77,6.71,1.97,-2.02,-2.26,6.25,-16.59,14.95,15.25,1.22,4.5,0.55,-38.46,2.32,-31.54,1
-0.36,-1.21,2.21,-48.62,17.94,151.39,-1.27,-2.71,8.65,-61.51,62.8,-63.85,2.12,4.8,0.85,-9.17,37.48,95.9,1
0.84,-1.21,2.21,0.21,-4.52,-127.42,0.98,-0.61,8.35,8.8,-33.88,17.69,1.07,3.3,2.65,-78.99,-31.37,17.78,1
-0.36,-0.16,1.01,105.67,-104.62,-572.73,-0.82,-0.46,2.05,-291.01,-2.63,304.31,2.42,4.5,1.75,98.26,72.15,32.92,1
0.69,-0.76,2.36,5.09,-3.06,1,1.73,0.89,1.6,-9.76,-13.37,-8.19,1.37,1.8,0.1,164.17,-17.21,-809.37,1
1.29,0.29,0.71,10.46,-5.99,2.46,0.53,0.89,1.9,-1.46,12.5,-8.68,1.22,1.2,-0.5,7.44,-5.49,2.15,1
0.84,-0.91,1.46,-0.77,-2.08,0.02,0.38,1.04,1,-2.92,-2.63,1.09,1.37,0.75,-0.35,-6.72,-6.46,9.48,1
1.74,1.04,0.71,2.16,0.85,-4.37,0.38,1.49,-1.4,-8.29,-4.1,-2.33,0.17,-0.75,-1.4,0.11,-4.02,-8.59,1
0.84,-0.46,-0.19,-7.61,2.31,-7.3,0.83,0.29,0.55,11.24,12.5,-8.68,0.02,0.45,-0.2,10.85,-5,0.2,1
-1.41,0.44,-0.79,-10.54,-3.06,7.83,-0.52,-0.01,0.55,-11.22,11.53,-16,-0.58,0,0.1,-14.05,2.32,-5.17,1
1.14,0.14,0.11,-6.14,-7.45,-4.37,-0.07,-0.46,0.55,11.24,-0.19,8.41,-0.58,0.75,-0.35,0.11,1.84,-8.1,1
1.14,-0.31,0.11,6.06,16.47,-12.19,-0.52,-0.76,0.25,0.01,6.65,-14.05,-0.13,-0.75,0.1,-19.91,-0.12,-0.29,1
0.24,0.14,-1.54,-7.12,6.22,-8.28,0.53,-1.06,-0.05,-1.94,8.11,-0.86,-0.73,-0.6,-0.8,-1.84,-12.32,-2.24,1
-0.81,0.29,-0.19,-9.56,-1.1,4.9,0.53,-0.31,-0.05,-13.17,-7.03,-3.31,0.17,0,-0.65,2.07,-1.09,-4.19,1
-0.36,-0.31,-0.34,8.99,-5.01,-5.35,-0.07,-1.21,0.55,5.38,10.06,-2.82,0.77,-0.9,-1.55,0.11,-11.35,4.59,1
0.24,-1.06,-0.34,-1.26,4.27,-0.47,-0.22,-0.31,-0.35,6.36,-1.17,-11.61,-0.43,0.15,-0.2,-4.28,-8.91,-7.12,1
0.09,-0.16,0.26,5.58,-10.87,-4.37,-0.67,0.14,-0.05,3.92,3.23,-6.24,1.22,0.45,-0.2,-0.38,-3.05,11.92,1
-0.36,1.04,-0.19,-8.1,0.36,-1.93,0.08,0.44,-0.05,-4.38,0.79,-4.28,0.62,1.05,-0.65,4.02,-2.07,2.64,1
0.69,-0.31,-0.79,4.6,1.83,-4.86,0.53,-0.31,-0.05,4.89,-15.33,-10.14,-0.13,1.5,-0.35,-4.77,-2.56,2.15,1
1.14,0.14,-0.79,3.13,0.36,-16.58,-0.07,-1.21,1,-4.87,-19.23,0.6,-0.43,0.9,-0.2,-11.61,2.81,0.2,1
-0.21,0.14,-0.79,-2.24,-11.36,-9.75,0.83,0.29,-0.95,2.45,-3.12,4.02,0.77,1.2,-0.8,4.51,-5.98,-10.05,1
-0.21,-1.06,0.41,-11.03,-9.89,10.76,0.08,-1.06,-0.8,9.29,11.04,-6.72,1.52,0.9,-0.5,11.83,2.32,-3.71,1
2.34,1.64,0.11,3.62,-2.08,-9.75,0.08,-0.61,-0.05,2.94,6.16,-0.86,-0.43,-0.6,-1.25,0.11,7.21,-3.22,1
-0.96,0.14,0.86,-12.49,-6.96,-5.84,0.08,0.14,0.4,2.45,0.3,-0.86,-0.73,0.15,-0.2,1.09,-5.49,6.06,1
-0.96,0.44,0.86,1.67,0.85,-11.21,1.73,-0.31,0.7,-4.87,9.09,-8.19,-0.73,-0.15,-0.8,5.48,-8.91,-3.71,1
0.24,-0.31,0.11,-7.12,5.73,-14.63,0.08,0.89,-0.05,10.26,3.72,-9.65,-0.58,0.75,-0.65,5,9.65,0.69,1
-0.36,1.04,-1.39,1.67,-2.57,9.3,-0.07,-0.46,0.25,-2.92,4.69,-8.68,-0.58,-0.45,0.4,-3.79,-0.61,6.06,1
-0.36,0.29,-0.94,-8.58,0.85,-7.3,-0.67,0.14,1.15,5.38,-9.47,-4.28,0.47,-0.6,-0.8,1.09,0.86,2.15,1
-0.81,-0.46,-0.19,-4.19,-7.45,-10.23,-0.67,-0.61,-0.8,0.99,8.11,-6.24,-0.43,-0.9,-0.5,7.44,-0.12,3.62,1
-0.36,0.74,-0.49,-0.28,-7.45,-5.84,0.53,0.14,-0.05,-5.85,5.18,19.16,1.07,0.75,1.45,3.53,11.11,14.85,1
-0.51,1.19,-0.79,6.06,-5.01,8.81,0.38,1.04,-0.5,8.8,2.74,5,-0.88,-0.75,-0.65,2.55,-0.12,11.43,1
-0.36,0.74,-0.49,1.18,-7.94,-0.96,0.83,-0.01,-0.95,10.75,2.25,8.9,1.07,0.75,-1.1,-1.84,5.74,-1.75,1
0.24,0.89,0.11,-6.14,7.2,-16.58,0.08,-1.36,-0.05,3.43,2.25,1.58,0.17,0.3,0.4,-7.7,-6.95,12.9,1
0.24,0.14,0.41,-1.75,7.69,1.48,-0.22,0.14,-0.35,5.87,-6.05,-1.84,-0.13,1.05,-0.35,11.83,2.81,-8.1,1
-0.28,-0.55,-0.37,-1.39,-2.91,5.18,-1.09,-0.21,-0.17,3.5,1.59,0.56,-0.45,-0.1,0.33,7.57,6.42,-10.49,1
-0.43,1.1,-1.42,11.8,-0.47,9.57,-0.19,0.84,-0.32,-0.41,2.08,12.28,-0.6,0.05,0.93,8.54,13.75,2.2,1
0.32,0.35,-0.67,-0.41,4.9,-4.1,-0.49,-1.41,0.73,-8.22,-2.31,7.89,0.6,0.8,0.48,0.73,2.03,0.25,1
-1.78,0.35,-0.67,-4.32,7.34,14.45,-1.39,0.09,1.18,3.01,-0.85,3,-0.45,-0.85,0.63,0.24,1.05,-6.59,1
-2.08,-0.85,0.53,7.4,16.13,3.71,-0.34,-0.51,0.13,2.04,3.54,-5.79,0,-0.55,0.33,-5.13,-6.27,0.74,1
-2.53,-1.15,1.73,-6.76,1,9.57,-1.09,-0.21,1.33,-0.89,8.43,-4.32,-1.8,1.55,0.48,11.96,-6.76,-8.05,1
-1.93,-1.75,3.53,-76.58,64.96,-502.64,-3.34,-1.11,2.98,-30.68,-57.49,-30.2,-0.15,1.85,3.48,45.17,-17.99,-49.07,1
0.62,-0.55,4.73,24,13.2,-24.12,-0.94,0.09,3.43,-32.14,49.93,-7.25,0.15,1.85,1.53,19.29,-10.67,7.09,1
1.97,-1.6,2.48,15.21,16.62,-43.16,3.26,-0.21,3.28,-22.87,8.92,12.28,1.2,3.5,2.58,-11.96,1.54,-16.35,1
-0.13,0.8,0.53,-37.03,13.2,200.98,5.96,-1.11,1.93,14.24,29.42,21.56,2.55,2.15,3.48,128.17,34.25,99.37,1
1.22,-1.9,-1.42,125.57,-36.11,-130.57,2.51,-0.21,0.58,237.88,33.82,145.09,1.2,2,1.83,-51.03,68.92,184.33,1
1.37,-0.25,1.88,-4.8,-6.33,-1.66,-0.19,1.14,1.18,9.36,4.03,-0.42,0.45,2.45,-0.42,-817.63,-53.15,-893.31,1
0.17,0.2,1.13,1.05,3.93,-9.96,0.11,1.44,1.33,3.01,0.62,8.86,0.6,0.8,-0.57,3.66,-13.11,8.06,1
-0.28,0.65,0.83,-6.27,-1.93,-1.17,-0.79,1.44,0.13,2.52,-10.13,-3.34,-1.2,1.7,-0.72,16.36,-9.2,-3.17,1
-2.83,0.65,0.83,-5.78,0.51,-3.12,-2.59,1.14,0.73,-5.29,-8.66,-7.25,0.75,2,0.63,7.08,-3.34,-9.03,1
-2.08,1.1,2.18,104.08,-35.14,-21.68,-1.39,0.84,1.48,-15.05,59.7,128,0.45,1.25,-0.12,72.51,-45.83,-112.06,1
-1.03,1.55,2.93,17.66,-8.77,-2.15,-0.49,0.39,1.48,-1.38,18.68,11.3,-0.75,1.7,-1.17,-1.22,3.98,-1.22,1
-0.43,0.8,3.68,-54.12,3.44,250.78,-0.34,0.54,3.58,-68.76,63.12,-67.31,0.15,1.1,-1.02,-10.01,24,105.72,1
-1.78,1.55,0.98,52.32,-8.28,118.46,0.26,0.39,2.98,-44.35,66.04,-8.23,0.15,0.8,0.48,-49.56,-8.72,-68.11,1
0.62,0.95,0.38,166.58,-8.28,970.51,1.31,-0.21,2.53,-52.16,68.49,-280.69,-0.75,1.25,1.08,190.19,7.89,-289.3,1
1.67,0.8,0.23,4.96,3.93,7.13,0.11,0.54,-1.37,4.97,-0.85,9.35,1.05,-0.4,-0.27,2.69,4.96,-0.73,1
0.92,0.65,0.83,-13.11,3.44,-3.12,0.41,0.99,0.58,-3.33,2.08,-0.42,1.05,-0.4,-0.27,9.52,8.37,-6.1,1
0.92,-0.25,-1.57,3.01,-13.16,5.66,0.26,0.09,-0.77,-0.41,-10.62,9.35,0.45,-0.55,0.33,-2.2,-2.86,-1.7,1
-0.13,0.05,0.23,-2.36,12.23,-0.68,0.41,-0.21,-0.17,-8.71,11.85,12.77,0.45,1.7,0.33,2.2,-0.42,1.71,1
-0.28,0.2,-0.82,10.82,-5.84,-2.15,-0.49,0.39,-0.02,4.97,-2.8,7.4,0.75,0.2,0.33,5.13,12.28,-8.05,1
-0.73,0.65,-0.07,-3.83,-3.89,0.78,1.16,-1.11,-0.77,3.01,0.13,-8.23,0.45,-0.55,-0.42,-2.2,-6.27,3.67,1
0.17,-0.55,-1.27,-6.76,-2.42,6.15,0.86,0.54,-0.62,8.87,-8.66,0.56,0.15,0.05,1.53,-7.08,4.96,6.11,1
-1.48,0.65,-0.37,11.31,1.48,9.08,1.16,0.39,-0.02,7.9,-5.24,7.89,-0.75,-0.55,-1.17,-3.17,5.44,4.16,1
0.62,0.95,-0.37,-0.9,8.32,-3.12,-1.99,-0.21,-0.17,0.57,-5.73,-0.42,-1.35,-0.4,0.48,6.1,14.23,5.62,1
-0.43,-0.85,-0.67,1.54,-3.89,-5.57,-0.94,-0.66,-0.32,-6.26,11.36,0.56,1.2,-0.55,0.63,-1.71,-3.83,13.43,1
0.32,-0.4,0.23,-4.32,-3.89,-9.96,0.26,0.84,-0.32,-11.64,1.59,7.89,1.2,-0.55,0.33,2.2,7.4,4.16,1
-0.13,0.05,0.23,2.52,5.39,5.18,-1.54,-0.96,0.13,6.43,3.06,8.86,0.6,0.35,-1.02,-3.66,-0.9,-2.19,1
0.92,1.4,1.13,0.57,9.79,12.01,1.31,1.44,0.13,-3.33,11.36,-3.34,-1.2,0.2,1.38,-2.2,8.86,-3.66,1
-0.73,0.2,0.38,-3.34,-12.68,1.27,-1.09,-0.51,-0.17,-0.89,4.52,-15.06,0.75,-1.3,0.33,-6.1,1.54,-6.1,1
-0.43,-0.85,-0.67,1.54,-6.33,1.27,-0.19,0.09,-0.77,4.48,-15.5,7.89,-0.45,-0.85,1.38,1.71,-3.83,-0.73,1
-0.28,0.65,-0.82,6.91,-5.84,-3.12,-0.19,-1.11,0.43,7.9,4.03,-6.76,-0.75,-0.85,0.33,-6.1,3.49,13.92,1
-0.88,0.05,-0.97,3.01,-1.93,-9.47,0.71,0.09,-0.32,9.36,-3.78,4.96,0.45,-0.85,0.33,10.5,9.84,-7.08,1
1.82,0.95,0.38,-0.41,10.27,-0.2,1.16,0.09,-0.02,5.45,1.1,-2.86,0.45,-0.55,-0.12,1.71,19.12,20.27,1
0.17,-0.55,-0.07,0.08,-7.79,6.15,0.26,0.09,-0.32,0.08,0.62,-1.88,0.15,0.35,-0.27,3.66,-1.88,4.16,1
0.77,-0.4,-0.22,-3.34,2.95,2.25,-0.49,0.39,0.43,-1.38,-11.59,6.91,-0.9,-0.7,-0.27,-1.22,-7.25,-0.24,1
-1.03,0.2,-1.27,3.5,1.48,7.13,0.41,-0.51,0.58,0.08,-11.59,-0.9,0,-0.1,-0.12,-7.57,-0.42,6.11,1
0.62,0.2,-1.27,-1.87,2.46,0.29,0.26,-0.66,-0.77,1.55,-6.22,0.07,-1.95,0.2,1.38,-0.24,-1.39,-11.96,1
0.62,-1.3,-0.07,-10.18,15.64,4.2,-0.79,-0.51,0.88,-1.38,3.06,4.47,1.8,0.35,-0.27,-2.69,8.37,1.71,1
-0.13,-0.4,-0.22,5.45,-6.33,-0.2,2.36,0.09,-1.22,6.92,0.62,3.98,0.15,-0.4,0.48,1.71,7.4,-4.63,1
0.62,0.2,-0.07,7.4,-3.4,4.2,-0.19,0.09,0.43,-4.31,-2.8,-1.39,-0.45,0.2,-0.42,-3.66,5.93,5.13,1
-0.43,0.8,-0.22,3.01,-9.75,-16.8,0.11,-0.96,0.58,-3.82,-6.71,-1.39,0.6,0.05,0.18,10.99,4.47,8.55,1
-0.88,0.05,-0.22,-1.39,-13.16,-0.2,0.26,0.39,0.43,-6.75,8.92,5.93,1.05,-1.45,-1.02,1.22,7.89,-7.56,1
0.32,-0.4,0.23,-2.85,-6.82,7.62,1.16,-0.66,0.73,-5.78,2.57,-12.13,-0.9,-0.7,0.18,-5.13,-0.42,-4.63,1
0.32,0.05,0.23,3.98,4.9,-7.52,-0.34,-0.51,-1.67,15.71,9.89,-4.32,-0.6,1.55,-1.02,-2.69,-0.42,-2.68,1
0.62,0.2,-0.82,3.01,-2.42,7.62,-0.34,0.54,0.13,9.85,-5.24,3,-0.15,-1.45,-0.57,-8.06,-0.9,-9.03,1
-0.77,-0.2,0.05,-4.44,9.58,3.53,-0.44,0.99,-1.01,-9.91,-0.3,-7.07,-0.7,0.06,-0.45,6.67,-0.7,9.03,1
-0.62,1.9,0.65,3.37,10.07,-3.79,0.31,0.24,0.19,-2.1,1.17,-2.19,-0.25,-0.69,0.3,6.67,-9,-4.15,1
-1.52,-0.05,0.35,4.83,-1.16,3.53,-0.29,0.09,-0.71,-8.94,-5.67,-7.07,0.35,-0.54,-0.3,9.59,0.27,-8.06,1
-0.77,1.3,0.5,1.42,4.7,0.61,0.91,-0.51,0.94,-7.96,4.58,-9.02,0.35,0.66,-0.3,-6.52,-1.19,0.73,1
0.28,-0.05,-1.3,-38.13,-28.99,49.43,1.96,0.69,0.19,3.27,-17.39,33.95,0.95,0.36,0.3,-27.51,26.15,-21.24,1
-1.07,1.15,-0.1,58.06,6.65,-139.53,-1.04,1.59,-1.16,-49.46,146.19,1.72,0.5,-0.24,1.05,36.45,-7.54,97.41,1
-3.32,2.5,0.95,18.02,12.51,5.98,-2.69,-0.36,0.79,-2.1,12.4,-3.65,0.2,0.06,2.1,17.41,-9.98,-5.13,1
-2.27,1.45,1.85,7.76,-0.67,9.39,-2.69,-3.66,4.24,1.81,15.82,-5.61,-0.85,0.66,3.45,36.94,-4.61,17.82,1
-4.22,1.75,2.9,8.74,15.93,25.51,-5.69,-6.21,6.34,13.04,13.37,1.23,-0.85,0.96,1.95,-15.31,-8.52,4.64,1
-4.22,2.05,2.45,4.83,24.72,12.32,-8.24,-7.26,4.09,9.13,11.91,6.11,-0.85,0.96,0.9,35.47,-5.1,31.49,1
-3.17,0.7,2.6,24.85,1.28,-57.01,-5.69,-3.81,3.64,7.67,-3.23,34.43,-0.85,-0.09,0.9,-0.66,-1.68,-20.75,1
-0.77,-0.2,-0.7,8.25,-3.12,6.95,-0.74,-1.86,2.29,-10.4,14.35,1.72,0.5,0.06,0.3,-2.61,-12.91,9.52,1
-1.07,0.4,1.4,6.79,8.6,-0.37,-0.14,-0.51,1.69,3.27,3.12,2.21,1.25,-0.24,0.3,-77.32,141.87,857.18,1
-2.72,-1.25,1.4,6.3,2.26,-7.7,-0.89,-0.06,1.69,0.34,1.66,-8.05,1.85,1.41,0.9,-3.1,0.76,-3.17,1
-0.77,0.1,-0.7,12.65,4.7,-0.86,-0.29,-0.66,2.29,8.15,-2.74,-9.02,-1.45,-0.24,1.05,-1.15,1.25,-3.66,1
-2.72,-0.5,-0.1,4.83,-8.49,-2.81,1.21,-0.06,1.39,15.97,-13.48,14.41,0.2,1.56,0.6,8.62,13.95,0.73,1
-2.12,-2.15,2.45,124.46,12.51,215.94,1.81,-0.66,4.54,-46.04,12.4,-10,1.25,0.81,1.8,-7.01,11.02,-25.15,1
-2.12,-1.85,0.5,-22.51,5.19,-30.64,1.51,1.44,6.64,31.1,13.86,51.52,2.15,2.31,2.85,88.7,106.23,181.4,1
-1.22,-4.85,2.9,20.46,11.04,9.88,2.11,3.54,12.19,8.15,13.37,-0.72,1.25,2.61,2.85,29.61,-8.03,-4.15,1
-0.62,-5.15,3.05,3.37,0.79,54.32,3.31,2.79,17.14,-14.79,25.58,40.78,2.3,3.21,3.45,42.31,9.06,27.1,1
-1.22,-4.55,3.2,12.16,-2.14,-23.81,1.36,2.79,19.54,-75.34,62.2,-8.05,1.85,3.21,2.7,15.94,-1.68,-12.45,1
-2.72,-3.5,2.6,-13.23,-12.39,17.7,-0.29,-4.86,15.34,-57.76,122.75,-379.14,-0.25,2.31,2.1,43.77,-9.49,54.93,1
-3.32,-2.6,1.7,14.6,0.79,300.41,-1.04,-3.66,6.49,-15.77,25.58,-27.58,0.35,2.76,2.7,-24.58,-1.68,-24.17,1
-1.82,-0.5,1.4,7.76,1.77,-3.79,-1.64,-2.76,2.44,-6.49,-4.2,1.23,-1,1.11,2.1,-7.01,-7.05,-5.62,1
-1.22,-0.2,1.7,-0.54,3.23,3.05,-0.44,-0.51,0.19,6.2,-3.23,0.25,-0.4,0.21,0.9,6.67,0.27,-11.47,1
-0.17,-0.5,-0.55,-1.03,-3.12,-17.46,-0.89,-0.06,0.64,-2.59,10.44,0.25,-1.15,0.21,0.15,2.27,3.69,1.22,1
-2.12,0.1,-0.7,-2.49,2.26,-4.77,-0.74,0.84,0.79,5.71,2.63,-8.05,-1,0.06,0.3,-1.64,-5.1,4.64,1
-0.62,0.4,-0.1,9.72,-11.9,6.46,-0.89,0.24,1.39,5.71,-0.79,11,0.5,0.36,-0.75,-11.4,11.02,3.17,1
-0.62,1.45,0.65,7.76,-13.37,12.81,-0.89,-0.06,-1.01,-0.15,-2.74,-7.07,-1.6,-1.14,-0.3,1.29,9.55,0.24,1
-2.27,-0.8,0.65,12.65,18.86,4.02,-0.74,-0.66,0.04,0.83,-2.25,4.65,0.5,-0.24,0.3,1.29,-3.14,-0.24,1
-1.82,-0.05,-0.55,14.11,2.26,13.79,-0.29,0.39,-0.71,2.78,-1.76,-12.93,-0.4,0.66,0.9,-4.57,-4.12,-9.03,1
-2.12,-1.85,0.5,-7.37,-0.19,0.61,-0.89,-0.06,-0.11,1.32,-9.09,1.72,-1.15,-0.54,0.9,0.32,-9.98,2.2,1
-1.22,-0.2,0.95,0.93,-15.32,0.12,1.96,-0.06,-0.56,-14.79,-0.3,-10,-1.6,-0.09,0.9,3.74,-0.21,-3.17,1
-0.17,0.4,0.35,0.93,0.3,11.35,0.76,-0.06,-0.56,-5.03,-10.55,2.21,0.95,-0.24,-0.15,-0.66,-0.7,5.62,1
-3.32,1.3,0.05,-0.54,-13.37,-7.7,0.31,-0.06,0.64,3.27,8.98,5.14,-0.25,0.06,-0.45,-12.38,1.25,0.24,1
-1.67,1.3,-0.25,5.32,-0.67,13.3,0.46,0.39,-0.41,8.15,5.07,-3.16,-0.7,0.06,1.05,0.81,16.39,6.1,1
-0.77,-0.2,-0.25,11.67,4.7,-10.63,-0.14,-0.81,-0.11,-1.61,-3.72,6.6,0.5,-0.24,-0.15,-2.12,7.11,10.01,1
-1.52,1.45,1.1,3.86,4.7,1.09,-0.44,-0.06,-0.56,2.78,9.96,3.67,-0.1,0.66,-0.3,5.69,-5.1,-3.17,1
-1.52,-0.05,1.1,-3.96,-6.04,-7.7,0.31,-0.51,0.64,1.81,-6.65,-10.98,-0.1,0.21,-1.05,-5.05,1.74,-4.15,1
-1.52,0.4,0.65,5.32,9.58,0.61,0.31,0.69,0.19,4.25,6.54,-2.19,-0.85,-0.54,0.9,2.27,-4.61,-2.2,1
-2.42,-0.2,0.95,-6.88,10.07,2.07,-0.29,-0.66,0.79,10.6,2.63,-6.09,-0.25,0.06,-0.15,-2.61,-0.7,-2.69,1
-1.52,0.7,-0.55,2.39,-4.58,-9.16,-0.74,-0.36,-0.71,8.15,-3.72,9.04,-0.7,-0.24,-0.45,-11.4,7.11,0.24,1
-0.62,0.7,-0.1,-5.91,10.56,3.05,-0.74,-1.11,-1.16,3.27,4.1,-1.7,-0.4,-0.09,-1.05,-5.54,0.27,1.22,1
-0.17,0.4,0.65,-7.37,1.28,0.12,0.16,0.39,0.04,3.76,-1.76,1.72,-1.15,1.41,0.45,-9.45,6.13,0.24,1
-1.67,0.1,-1.45,-3.96,6.65,5.49,0.46,-0.66,0.34,4.74,3.61,-4.14,-0.25,0.36,0.3,-8.96,-16.82,-4.15,1
-2.42,0.55,0.95,7.76,-6.53,0.12,-0.14,-0.51,0.19,3.76,0.68,4.65,-0.1,0.66,-0.6,-0.66,-6.56,6.1,1
-1.07,0.7,1.4,6.79,0.79,5.98,-1.34,0.99,0.19,6.2,2.63,-5.61,0.2,-0.24,0.6,-4.08,5.64,-6.59,1
-2.27,1.15,-0.55,3.37,8.12,8.91,-0.44,-0.81,0.19,-1.61,13.86,5.14,-0.1,2.01,-1.05,-10.42,-12.91,-8.06,1
-1.22,0.1,0.95,7.76,8.6,-3.79,0.76,0.24,0.64,-7.47,9.96,2.7,-0.7,0.06,0.3,-2.61,3.2,2.2,1
-1.67,-0.2,-1.15,-3.96,7.63,2.56,0.46,-0.36,-0.71,1.81,-11.04,0.25,-0.1,-0.54,-1.05,-0.66,4.67,-5.62,1
-0.96,-0.25,-0.01,-2.38,-6.86,-4.87,-1.23,-0.68,0.55,-13.51,-15.3,5.72,0.67,-0.1,-0.29,14.4,5.13,9.22,1
-2.01,-0.85,0.14,-0.92,-7.84,16.62,-0.18,-0.53,-0.8,-5.69,5.21,-9.91,1.72,0.35,-0.14,3.17,5.62,5.81,1
-2.16,-1.45,0.74,2.5,-5.4,-10.24,-0.63,-0.23,0.4,9.44,-5.54,-1.12,1.42,-0.85,0.46,-3.17,7.57,5.32,1
-1.71,0.2,-1.21,8.85,0.95,8.8,-1.23,-0.68,-0.2,-0.32,2.28,-6,-0.23,0.05,0.61,-2.69,-7.56,4.34,1
-2.31,-0.4,-0.61,17.15,-9.79,-3.89,-1.08,-2.03,1.15,-4.23,-7.98,6.21,-0.23,0.05,1.36,-3.66,7.08,-0.54,1
-3.06,-0.25,2.39,-1.89,-19.56,-10.73,-2.28,-0.98,0.7,14.33,-6.51,6.21,-0.83,1.7,0.46,2.69,-3.17,-2.98,1
-0.96,-0.7,3.89,-29.24,45.39,7.83,-1.08,-2.78,7.3,58.76,-35.32,64.8,-0.98,2.9,3.61,137.45,-17.82,-126.52,1
-0.96,-0.25,3.59,-0.43,17.55,17.1,0.57,-9.23,15.7,-32.06,30.6,15,1.27,4.4,4.36,-16.36,-14.4,-27.89,1
-0.51,-1.75,1.19,-35.59,11.21,16.62,9.87,-15.23,20.2,-49.64,53.06,-23.58,1.87,6.05,4.51,-10.99,-8.54,11.18,1
-1.56,-0.4,1.04,-1.41,10.72,-60.53,12.57,-14.93,19.9,-13.02,15.46,18.41,2.62,6.8,4.81,42.24,8.55,-16.17,1
-2.31,-2.35,0.14,-239.69,294.9,731.95,8.67,-4.73,11.8,15.3,-3.1,-27.49,3.82,6.35,4.51,7.57,-32.95,-46.44,1
-2.76,-0.4,1.34,340.88,514.14,498.06,3.27,0.07,6.7,-30.11,-176.44,226.91,1.42,3.2,1.96,298.58,18.32,-255.91,1
-1.56,0.35,1.04,11.29,-1.49,-3.4,-1.08,0.97,1.6,-2.76,-3.1,-2.58,0.97,0.8,0.61,-1.22,13.92,6.29,1
-1.56,-0.4,0.14,-0.92,6.81,-1.45,-0.03,1.57,1,5.54,-0.65,6.69,-0.23,0.35,-0.89,5.13,6.11,-12.26,1
-1.71,0.95,1.49,6.89,-4.91,9.78,-0.63,-0.23,1.6,-7.16,2.28,-0.14,-0.53,1.7,-1.79,-3.66,4.16,-4.94,1
-2.61,-0.7,1.94,13.24,-8.33,-7.8,-1.98,-0.38,-0.2,-0.32,3.25,-5.51,-0.98,1.85,-0.44,3.17,1.71,-3.47,1
-2.16,-0.25,2.69,78.67,-28.83,73.26,-2.88,0.07,2.05,-10.09,71.61,41.85,-0.68,1.85,1.06,-96.92,78.86,170.84,1
-0.06,-0.7,3.14,-12.15,26.34,-5.36,-1.98,-0.68,5.95,0.17,-0.65,9.14,-0.68,2.9,-1.19,4.15,-9.52,0.92,1
-1.41,-1.45,3.59,-76.6,43.43,-87.88,-0.78,0.37,10.15,-54.03,46.71,-32.86,-0.08,2.75,0.76,24.66,18.8,70.26,1
-0.96,-0.25,2.69,59.63,-24.93,-173.33,1.62,1.57,9.7,110.52,-24.58,11.09,-0.23,3.65,1.66,81.79,12.94,19.97,1
-2.61,-1.75,-0.01,355.53,-181.67,-501.94,0.87,1.12,3.7,2.12,-109.05,-97.31,0.37,2.45,-0.29,-415.28,0.25,26.31,1
-0.36,1.55,1.79,-3.36,1.44,0.99,1.47,0.97,0.4,5.05,-3.1,5.23,0.67,0.95,0.01,-16.36,3.67,8.74,1
0.99,-0.85,1.79,-1.41,3.39,7.34,0.57,-0.23,-0.05,-0.81,1.3,4.74,0.97,1.1,1.36,-4.15,-4.63,7.76,1
-1.11,0.8,0.14,2.5,1.93,1.97,0.12,0.22,-0.05,8.96,-15.79,-0.14,0.07,0.35,0.61,-1.71,-4.63,6.29,1
-0.66,-0.85,-0.16,-7.27,5.35,-1.45,-0.03,-0.38,0.25,2.61,-3.58,1.32,0.37,0.95,-1.04,-4.64,-4.15,1.41,1
-2.16,0.2,0.74,1.04,2.42,4.41,-0.63,-0.53,-0.05,12.37,-3.1,7.67,0.52,-0.7,0.31,-13.43,4.64,-9.33,1
-0.96,0.95,-0.46,1.04,-1.49,7.34,-0.78,0.82,-0.95,-6.67,5.69,-0.63,1.12,-0.1,0.46,1.71,4.64,-5.42,1
-0.66,0.35,-0.16,-2.87,4.86,-2.43,-0.03,-0.38,0.55,-5.69,1.3,2.3,-0.68,0.05,1.06,-13.43,-1.22,-0.54,1
-0.66,-0.85,0.14,-1.89,-11.74,4.41,0.12,0.22,0.4,9.44,-7,-0.63,0.37,-0.1,-0.29,-7.08,8.55,-2.01,1
-1.71,0.2,0.44,9.82,3.88,10.27,0.57,-0.23,0.4,-5.69,-2.12,-9.91,0.67,-1.3,0.01,-2.2,-11.47,1.41,1
-1.71,-0.7,-1.96,5.43,7.3,8.32,1.17,0.82,1.3,8.47,-4.56,4.25,-0.98,-1.75,-0.44,-10.01,10.5,-1.52,1
-1.11,-1.15,-0.16,5.92,8.28,0.5,-2.43,2.32,-1.7,4.07,7.16,11.09,0.07,1.1,0.31,-2.2,1.71,1.41,1
-2.16,-0.1,-0.61,2.5,-0.51,5.39,-0.18,2.17,-1.1,-8.13,11.55,-3.07,-0.08,0.95,0.01,3.66,-9.03,2.88,1
-2.01,1.1,1.34,5.92,7.3,9.29,0.42,0.07,-0.2,-5.21,-1.14,-2.58,-1.28,1.25,-1.34,3.17,-14.89,-4.45,1
-1.41,0.2,-1.66,7.87,-5.4,8.32,-0.63,0.52,-0.05,7.49,7.65,4.74,1.42,-0.1,0.76,1.22,-2.19,-3.96,1
-1.11,-0.4,0.59,4.45,3.39,6.36,-0.48,-0.38,-0.2,-14.48,5.21,4.74,-0.83,0.2,0.46,-4.64,-4.15,3.85,1
-1.71,-0.25,1.49,-2.38,0.46,1.48,0.42,0.82,1.3,14.33,-7.98,-5.02,-0.83,-0.55,0.01,8.54,2.69,-5.42,1
-1.41,0.5,-0.76,-4.34,2.91,-2.91,-0.03,-0.68,1,-1.3,8.13,3.76,0.37,0.95,0.46,13.92,-1.22,5.32,1
-0.06,1.25,-0.01,0.55,-5.88,3.92,-0.18,0.22,-0.05,-4.72,12.04,-8.93,0.37,0.95,0.46,11.96,-3.17,-3.47,1
-1.11,0.8,0.59,-7.75,-0.02,2.46,-0.18,0.52,0.4,-1.79,8.13,11.09,-0.68,0.8,-1.19,1.22,5.13,7.76,1
-1.56,0.8,1.04,3.48,1.44,-8.29,-0.03,1.12,-0.95,10.42,-16.28,-0.14,0.07,0.05,1.36,-2.2,1.71,4.34,1
-1.56,1.55,-1.06,4.45,9.74,4.9,0.42,0.07,1,-0.81,-5.54,-6,0.37,-0.85,0.01,0.73,11.48,1.41,1
-2.16,0.2,-0.76,-3.85,3.39,-6.33,-0.18,0.97,-0.35,-0.81,0.81,3.76,0.97,-0.7,-0.14,1.71,7.57,-0.05,1
-2.61,0.5,-0.01,12.27,-8.81,9.29,0.12,-0.53,0.7,1.63,-2.12,4.25,0.37,0.95,1.21,-11.47,-0.24,7.27,1
-1.56,0.8,1.04,-3.85,-3.44,3.92,-0.03,0.37,-0.95,12.37,-14.33,-3.56,0.07,0.35,-0.14,6.59,3.67,1.9,1
-0.96,0.2,-0.46,-3.85,-7.84,17.59,1.17,-0.38,-0.2,0.65,-6.03,7.18,0.07,1.1,-0.44,4.64,12.94,1.9,1
-0.06,-1,-0.01,10.8,-3.44,0.99,-0.63,-0.98,-0.05,-12.53,-2.12,0.84,-1.28,0.2,-0.29,-2.69,-10,10.69,1
-2.16,-0.25,0.44,5.43,-5.4,1.97,-0.18,0.97,-0.35,-6.18,-4.56,15.48,0.07,0.05,1.66,-18.31,0.25,6.78,1
-1.11,-0.4,0.14,6.89,-2.47,12.22,-0.48,1.12,-0.2,-1.3,5.69,-5.02,0.52,-1,-0.14,-1.22,-12.93,-1.52,1
-1.41,0.5,0.74,-3.85,5.83,-6.33,-0.48,0.37,0.25,11.88,-11.88,0.35,0.37,-0.55,0.01,0.73,12.46,-4.45,1
-0.9,-0.65,0.01,-0.27,4.35,-4.55,-1.02,0,0.98,4.7,-1.35,-5.41,-0.48,0.14,-1.18,1.8,3.23,-0.93,1
1.35,0.25,1.06,7.54,3.86,2.29,-1.62,0.45,-1.12,5.19,-2.81,18.52,-0.03,0.14,-0.43,0.33,-8.98,11.28,1
-0.15,0.55,-0.29,-0.27,-0.05,-5.52,0.33,0.15,-0.07,6.66,-3.79,-7.85,-0.18,-0.01,1.22,-0.16,-0.19,-1.42,1
-0.15,-1.1,-0.74,-3.2,5.32,-0.64,-0.87,-0.3,1.13,-10.43,-0.37,2.9,1.02,-1.06,-0.28,-3.57,-1.17,-7.28,1
-0.75,-0.5,-0.14,-2.22,0.93,4.24,0.63,-1.2,1.28,-9.46,-5.25,-2.48,-0.78,-0.16,-1.93,3.26,-9.47,-3.86,1
-1.35,0.1,-0.74,-3.69,-17.63,-0.64,0.63,0.3,0.23,4.7,-2.32,0.94,0.72,0.14,-0.43,-10.41,-0.68,-1.9,1
1.5,0.55,0.91,-3.69,-9.81,0.34,0.33,-0.3,-0.37,-2.62,-3.79,-3.94,-1.23,0.89,-0.13,5.7,-0.68,-3.37,1
1.35,0.7,0.31,11.45,6.3,-0.15,-0.42,1.35,1.13,9.58,3.05,-1.01,0.12,-1.06,0.17,1.31,2.25,2,1
0.9,-0.5,1.81,-6.13,-10.3,-10.41,1.08,0.75,1.28,20.33,-20.39,14.13,0.12,-0.76,-0.28,11.56,-4.1,-5.32,1
3.6,0.1,1.66,-147.24,-175.83,-59.72,1.83,1.05,1.73,-36.31,44.06,-100.62,-0.03,1.64,-0.43,123.87,49.13,123.1,1
2.4,-1.4,4.36,3.15,9.23,1.31,-1.77,2.55,2.48,-22.15,51.39,69.79,1.02,1.49,1.22,93.59,5.18,-7.28,1
3.9,-0.95,6.91,-0.27,18.99,-19.19,-0.57,4.8,4.43,11.05,7.44,1.92,-0.18,1.04,1.22,10.59,3.72,9.81,1
5.25,-3.05,7.96,-30.54,20.95,19.87,-1.77,3.3,5.48,12.51,-5.74,27.8,0.12,1.79,-0.58,-10.41,-9.96,13.72,1
3.9,-1.7,6.61,-13.45,6.3,0.83,0.63,2.55,5.93,2.26,-6.23,-13.22,-0.63,1.04,1.52,7.66,-12.89,-2.39,1
0.9,-1.7,6.61,74.93,2.39,56.98,1.38,1.5,7.43,-15.81,27.95,-20.05,-0.18,-0.46,0.92,1.31,5.18,20.56,1
0.45,-0.95,4.51,-19.8,29.25,64.3,-0.27,1.05,2.78,9.58,-0.37,-28.84,0.12,0.29,-0.28,-256.5,-58.3,18.6,1
-0.15,0.55,1.66,-0.76,-2.49,-4.55,-1.02,0.75,1.28,0.8,8.42,-1.99,0.72,0.89,-0.73,332.36,-102.24,-59.03,1
0.3,0.1,1.21,2.66,-4.44,-3.57,-1.02,-0.45,1.73,21.3,-16.48,-3.45,0.72,1.94,1.37,2.77,-3.61,-0.93,1
-0.9,-0.35,1.21,-2.22,-5.42,3.75,-0.27,0,2.48,4.21,-3.79,-5.89,1.32,0.29,0.17,-2.6,-5.56,-2.88,1
1.05,-1.1,1.21,9.01,-3.47,-6.99,-0.27,1.05,2.48,10.56,-0.37,-7.36,1.02,1.04,0.17,-13.34,8.11,0.05,1
0.45,-1.7,1.06,-4.17,-9.33,61.37,1.83,-0.45,1.28,-33.38,38.69,-95.74,1.17,0.14,-1.48,-5.04,26.67,121.14,1
1.05,-2.3,1.66,19.75,-16.65,-19.68,-0.42,0.45,2.33,158.51,-73.61,253.38,2.37,1.64,1.07,40.86,89.17,57.67,1
1.35,-0.95,2.26,18.77,1.9,-7.48,-1.47,1.5,2.78,6.17,-7.21,5.34,1.47,1.19,1.82,23.28,5.67,5.42,1
0.9,-1.7,3.46,-0.27,7.28,-35.31,0.03,0.15,6.83,25.21,10.37,-10.29,0.57,2.84,3.02,0.33,2.25,-8.25,1
-0.3,-3.65,3.01,-11.01,-2.49,4.73,0.03,-1.8,10.73,-3.6,38.2,-58.63,2.07,2.09,2.27,-0.16,7.62,19.09,1
0.9,-1.7,3.76,12.43,25.83,-6.5,-0.42,-1.8,7.58,8.61,5.98,2.41,1.17,2.39,2.12,54.04,-16.79,30.81,1
-1.2,-3.2,3.01,15.84,-3.96,-2.59,-1.17,-2.55,4.88,34,-48.22,34.63,1.32,1.79,2.72,33.05,-16.3,21.04,1
-1.65,-2.45,1.36,115.45,98.1,238.62,-1.62,-2.85,4.88,-103.21,213.01,-90.37,0.12,1.49,1.52,-101.72,38.87,52.78,1
-0.6,-0.65,0.91,0.71,-2.98,9.61,-0.42,-1.35,0.68,7.14,0.12,-10.29,-1.53,0.44,1.37,0.82,-3.12,-4.83,1
0.45,-0.5,-0.59,-1.25,-11.28,-1.62,-1.02,0,0.23,-2.62,9.88,2.9,-1.83,0.74,1.97,4.73,7.13,-1.42,1
0.45,-0.5,-0.14,-5.15,0.93,-6.01,-0.27,0,0.53,-1.16,5,4.36,-0.48,0.89,1.82,9.61,4.2,-7.28,1
-0.15,-1.85,0.46,4.13,-12.74,-7.96,-0.87,-0.3,-0.07,-0.18,5.98,-5.41,0.42,0.14,-0.43,-0.64,9.58,-1.9,1
-0.3,-0.5,0.31,9.5,5.32,-7.48,1.08,1.5,0.23,10.07,-2.32,2.9,-1.38,-0.46,0.17,-9.92,-0.68,-1.42,1
0.45,-1.25,0.61,-5.64,-0.54,1.31,0.63,-0.75,0.23,9.1,4.02,0.45,0.72,-0.91,0.32,-11.39,-5.07,-3.86,1
0,-0.5,-0.59,-5.64,7.28,-2.59,-0.42,0.15,0.38,8.12,4.02,-4.92,-0.93,-1.06,0.17,-11.39,-11.91,6.88,1
0.9,-0.5,-0.89,-3.2,-4.44,5.71,0.33,0.9,-0.07,-7.02,-5.74,11.2,0.12,1.04,0.17,7.17,3.72,-4.35,1
-0.6,-1.4,-1.49,-8.57,2.39,-5.52,0.63,1.05,0.23,1.77,1.58,-4.43,-0.18,-0.76,0.17,8.63,-10.44,1.51,1
-0.3,0.25,-0.14,-1.25,6.3,-10.89,1.68,0.9,-0.37,-1.65,-2.81,6.31,-0.63,0.29,0.17,4.24,-9.96,2.49,1
-1.65,0.25,1.06,-5.15,7.28,-4.55,1.08,-1.2,-0.52,0.31,-5.25,5.34,-0.03,0.14,0.32,-3.09,-4.1,-5.81,1
-1.65,0.7,-1.34,-7.59,-8.35,-10.89,-1.02,-0.45,-0.97,6.66,0.61,8.76,-0.78,0.89,-0.43,4.24,6.65,3.96,1
-1.2,-0.95,-0.89,-1.25,-8.35,1.8,1.38,1.05,-0.52,11.54,-2.81,-9.8,-0.78,-0.91,-0.73,-6.99,-8.49,-8.25,1
0.9,0.25,-0.89,-1.73,5.81,-10.41,0.03,-0.6,-0.37,0.31,2.56,-1.01,-0.48,-0.16,-0.43,0.82,2.25,7.37,1
0.3,-0.35,-1.94,-2.71,-10.79,2.29,1.08,0.3,-0.52,7.14,0.61,-0.03,0.12,-1.51,0.47,7.17,2.25,-3.37,1
-0.6,0.1,1.21,5.59,15.58,1.31,0.63,-0.45,-0.97,-0.18,3.05,2.41,-0.48,-0.16,-0.43,1.8,-5.07,3.96,1
0.3,0.1,0.46,9.99,15.09,-1.13,0.63,-0.75,-0.22,-4.58,8.42,-0.03,0.42,-0.91,-0.13,5.7,4.69,-5.32,1
0,-0.95,-0.14,-5.15,-0.54,0.34,1.38,0,0.23,12.51,0.12,-2.96,0.57,-0.01,-0.28,-2.6,6.16,-5.32,1
-0.6,-0.65,-1.19,3.15,3.37,-9.43,-0.27,0.3,-0.52,-2.13,-4.28,-7.36,-1.23,0.14,-0.43,-0.64,7.13,4.93,1
0.9,-0.95,0.31,10.47,0.93,-6.01,0.63,0.75,0.53,-6.53,-1.35,0.94,-0.18,-0.46,-0.28,7.17,-0.19,4.93,1
-0.15,-0.65,0.01,5.1,-2.98,-2.59,0.03,-0.6,-0.07,17.4,-10.63,-2.48,0.12,-0.46,-0.58,-0.16,6.16,3.96,1
-0.15,0.1,0.01,7.06,-8.35,2.29,0.33,0.45,-0.82,11.54,0.61,-1.01,0.57,0.74,1.52,0.82,0.3,1.51,1
-1.34,-0.59,-0.39,2.54,6.19,-7.89,-1.55,-1.1,-1.36,-7.31,6.47,-7.05,-0.06,0.46,0.45,1.15,-7.92,-4.38,1
0.91,0.61,-1.89,-6.25,13.02,4.81,-0.2,0.25,-0.01,4.4,3.06,-7.53,-0.21,0.01,0.6,-8.62,1.36,-5.36,1
0.46,0.61,-0.39,7.92,-8.95,-3.98,-0.95,-0.8,-0.01,9.29,-10.62,3.21,1.14,-0.14,0.75,-5.2,3.31,4.9,1
-0.89,0.46,1.11,-9.17,10.58,8.72,-0.35,0.1,-1.06,-12.69,17.22,-11.44,-0.66,0.01,0.6,-4.22,-1.08,-8.77,1
-0.59,-1.19,0.21,-10.64,0.82,2.37,-0.95,-0.05,0.29,-6.34,3.06,-4.12,0.69,1.96,-0.3,7.01,5.75,0.5,1
0.31,-1.19,-0.09,2.54,-11.88,1.39,-1.25,-1.4,-0.31,-2.92,5.99,4.67,-0.66,0.01,1.05,-1.29,1.85,5.39,1
-1.19,0.16,0.06,-11.13,10.58,-2.03,-0.95,-0.05,0.29,-5.36,-3.29,4.18,-0.21,0.01,1.05,4.08,-2.06,8.32,1
-1.34,-0.44,1.86,-8.69,-14.81,-3,-0.8,1.3,0.44,-2.43,11.85,-2.16,-0.06,-0.14,0.45,2.61,0.87,-1.45,1
0.31,-0.44,6.21,15.73,10.58,-8.86,-2.75,-0.35,0.89,5.38,10.87,-14.37,-0.51,1.21,0,-4.22,-1.08,5.39,1
0.01,0.61,10.71,5.96,2.77,-7.4,-2.45,2.05,2.84,18.56,-13.06,1.74,1.44,3.16,0.75,3.59,1.85,-22.45,1
6.61,-3.14,27.06,-9.66,6.19,47.78,-3.65,2.8,5.54,-10.73,22.1,18.34,1.29,2.56,2.4,3.1,-6.94,-25.38,1
12.76,-5.39,32.61,16.22,-1.14,54.13,-0.35,4.3,5.54,-9.76,28.45,20.79,0.54,1.81,0.6,-23.75,1.85,5.87,1
15.16,-8.39,21.36,-158.1,14,13.6,1.45,5.5,4.49,12.71,-3.78,12,0.99,1.81,1.35,-8.13,5.26,15.64,1
4.66,-3.29,5.61,-12.1,-53.87,-52.32,0.85,2.8,3.59,106.94,-11.59,-50.01,0.99,0.31,1.35,-242.99,-25.5,-25.86,1
1.81,1.81,2.01,-5.76,1.3,7.74,-0.35,1.6,1.34,-160.63,299.93,-1669.64,1.29,1.51,-0.9,-1057.93,631.73,1086.38,1
-0.14,0.01,1.41,-2.83,-9.93,12.62,-0.35,0.85,-1.06,3.92,19.17,-1.67,0.39,1.96,0,-3.74,-11.34,11.73,1
-0.59,1.51,2.61,-4.78,3.26,-0.07,0.4,0.1,0.89,-2.92,13.8,6.63,1.44,1.21,-0.6,-8.13,-10.36,2.46,1
-0.89,1.21,-0.09,1.08,3.75,-2.51,-0.65,-0.05,-1.21,-2.92,11.85,-2.16,-0.81,0.16,-2.1,9.45,-0.11,-1.45,1
-0.89,0.01,2.61,19.63,-5.04,-5.44,-0.95,0.7,-0.46,1.47,13.8,-6.07,0.39,1.21,-1.05,-15.45,-18.17,0.01,1
-2.24,1.21,2.61,19.15,2.77,10.18,-1.85,1,0.29,-11.71,9.4,-9.49,-0.51,0.91,0.45,-12.52,20.89,29.31,1
-1.19,0.16,7.56,-6.73,14,39.97,-0.95,2.2,0.74,-18.06,32.35,3.7,-1.41,0.31,-0.45,-15.94,-0.11,0.01,1
0.91,1.36,7.86,-6.73,6.19,26.29,-0.8,2.35,0.44,10.75,6.96,22.74,-0.06,1.21,0,-9.59,-0.11,-9.75,1
1.36,0.16,7.86,91.9,19.37,-71.36,1.3,1.3,2.39,15.15,-24.78,-7.05,-0.51,0.46,-0.6,-34.01,13.56,168.47,1
1.81,1.81,4.71,32.82,16.93,-17.65,-0.95,1,2.54,36.63,-6.22,-1.67,0.39,2.41,1.2,-5.69,-25.01,-0.47,1
2.41,2.41,2.16,166.61,144.86,447.19,2.05,0.85,2.09,58.12,-24.78,-65.64,0.09,1.51,-0.45,48.51,6.24,29.8,1
1.81,0.91,1.56,-5.27,3.75,-0.07,-1.25,1.3,-0.31,-9.76,-1.83,-4.12,-0.51,1.66,-1.05,-3.74,0.87,-1.45,1
-0.29,0.61,0.51,-3.32,9.6,-10.82,0.7,0.25,-0.76,7.82,-8.17,6.14,1.29,0.31,0.6,0.17,-1.57,5.39,1
0.01,0.16,-0.69,11.33,-2.6,8.23,0.7,1,-0.46,-3.41,17.22,-7.05,0.09,0.76,-0.9,4.57,-7.43,-3.4,1
-0.14,0.46,0.21,3.52,-5.04,8.23,1.3,0.85,-0.31,5.87,12.82,-1.19,-0.21,1.51,0.3,-11.55,-9.38,3.92,1
2.11,0.16,0.81,9.87,-3.58,-5.44,-0.35,0.1,0.89,10.26,2.57,-2.16,-0.81,0.46,0,-7.64,9.17,-5.84,1
0.46,-0.14,-1.14,13.77,-9.93,10.67,-0.2,0.25,-1.21,0.5,-3.78,-3.63,0.69,1.21,-0.3,16.77,6.73,-11.22,1
0.91,-0.59,-0.39,-4.29,13.02,-0.07,0.4,0.1,-0.61,-14.64,-0.36,-0.7,0.09,1.06,-0.15,-4.71,-8.41,-2.92,1
-0.14,1.21,-0.09,5.96,5.21,-4.47,0.25,-0.5,-0.01,2.45,-5.73,6.63,0.39,-0.89,0,4.57,5.26,-3.4,1
-1.79,0.46,-0.09,10.84,-9.44,2.86,-0.65,-0.8,-0.76,-1.46,3.54,-5.58,1.44,1.96,-0.6,-1.29,-3.53,-3.89,1
-0.14,0.46,-0.54,-3.32,0.82,-11.79,0.7,-0.8,0.29,1.47,3.54,-4.12,-2.01,0.16,-0.3,-13.5,8.19,-3.89,1
-0.29,0.91,0.06,-4.29,-4.56,5.3,-0.05,0.85,-0.61,-6.83,-9.64,-2.16,-0.81,0.16,-0.6,-1.78,5.26,3.43,1
-0.74,0.61,1.26,3.03,7.65,6.76,-0.65,0.25,-0.46,-8.29,-6.22,-0.7,0.09,-1.49,-0.15,-8.62,-7.92,3.43,1
1.06,0.01,-0.09,2.54,-6.51,-5.93,-0.05,0.85,0.14,-1.94,-9.64,0.28,1.14,-1.34,0.75,3.59,-6.46,8.8,1
0.46,-0.14,0.51,-13.57,1.79,14.09,0.4,0.1,-0.61,1.47,-0.85,-2.16,-0.06,0.46,-1.05,-11.55,-3.53,0.99,1
0.76,-0.74,0.66,1.08,2.28,8.72,-0.8,-1.1,0.44,0.5,12.82,-5.58,0.54,0.31,0.3,-0.81,-4.01,0.99,1
-0.14,-1.19,-0.09,3.52,-9.44,-3.49,0.85,-0.65,0.14,2.94,-1.34,-12.42,0.54,0.76,-0.15,-4.71,-2.55,0.5,1
0.46,-0.14,0.81,-14.06,5.21,6.76,-0.65,-0.05,-0.46,3.92,-4.27,-0.7,-0.21,0.01,1.05,-0.32,4.78,8.8,1
-0.29,0.16,-0.39,3.52,-1.63,0.9,1.45,-0.8,0.74,-4.38,11.36,4.67,0.54,-0.44,-0.9,-6.67,9.66,4.9,1
-0.59,0.46,-0.09,4.99,4.72,-4.47,0.25,0.25,-0.46,-7.31,-1.34,11.02,0.69,1.66,0,-12.52,4.29,-2.92,1
0.31,0.46,0.21,3.52,3.26,7.74,0.4,0.4,-0.61,7.33,5.5,2.23,-1.26,0.91,0,3.1,5.75,-4.87,1
-0.29,0.61,0.51,0.59,10.09,3.34,0.85,0.4,-0.31,0.5,-7.69,0.28,0.99,0.31,-0.15,4.08,-3.53,2.94,1
-0.14,0.46,-0.09,0.59,2.77,4.81,0.25,0.25,0.29,3.92,-2.31,-0.21,-0.96,-0.44,-0.15,-1.78,7.22,0.5,1
-0.74,0.16,1.26,-2.83,-0.65,4.32,-0.35,-0.65,0.44,-3.9,0.62,-4.12,0.39,0.16,0.75,-3.74,1.85,-3.89,1
-0.14,0.01,0.21,-0.87,0.82,2.37,1.3,-0.35,-0.31,3.92,3.54,8.58,0.39,-0.14,0.45,5.54,3.8,-11.22,1
-0.29,-1.04,-0.39,0.59,10.58,-10.33,-0.95,-0.8,-0.46,2.45,2.08,3.7,-0.06,-0.14,-1.05,12.38,-10.36,4.9,1
0.07,0.78,-0.22,-11.09,1.97,20.52,-0.17,0.36,0.85,0.06,-5.14,-16.54,-0.81,-0.89,-0.1,1.35,7.14,9.98,1
-1.13,0.78,1.43,5.02,-10.72,18.57,-0.47,-0.39,0.85,6.89,-14.41,-2.38,0.09,0.31,-1.75,-3.54,-1.16,-0.76,1
-0.98,0.63,0.83,5.51,-6.82,8.32,-0.47,0.06,0.55,-3.85,10.49,-5.8,0.09,0.76,0.2,-3.54,16.42,-4.18,1
-1.73,-0.12,1.58,0.14,4.9,3.92,0.28,-0.39,0.55,-3.85,1.21,-0.92,0.54,0.01,-2.35,-4.02,-10.44,-4.67,1
-2.03,-0.42,0.98,-0.35,4.41,-3.4,0.88,-0.24,-0.5,-2.38,-4.16,-6.78,-0.21,0.01,-0.25,5.25,-7.51,4.61,1
0.22,1.08,-0.82,-6.21,7.34,2.46,0.43,-0.24,-0.05,-5.31,-5.62,3.96,1.44,-0.59,-0.1,3.79,-6.04,-2.71,1
-1.43,0.63,0.83,-0.83,-1.45,-3.89,1.33,0.21,0.25,-1.89,-0.74,2.01,-1.41,0.31,-0.25,14.53,-5.07,0.7,1
-0.98,0.18,1.58,-3.76,2.46,-5.36,1.18,0.36,1.6,-2.87,-9.53,2.99,0.39,0.46,0.35,8.18,9.09,-13.46,1
0.22,0.63,1.58,22.6,23.46,-7.31,1.48,-0.69,0.55,-20.45,23.18,-63.42,0.54,0.31,0.5,-11.84,9.58,81.76,1
-1.13,-0.42,1.73,74.85,24.92,25.89,0.28,1.56,2.8,46.93,-8.07,78.67,1.74,0.31,1.25,66.78,67.69,-32.99,1
-1.73,0.63,1.58,9.91,8.81,1.97,-1.07,1.71,2.95,-7.75,13.91,11.78,0.99,2.86,3.8,10.63,-9.95,-8.09,1
-1.73,-1.32,3.23,28.46,2.46,-7.8,-0.47,1.56,1.6,18.12,10,-11.66,0.54,3.31,3.05,55.55,-13.86,-0.27,1
-1.73,-0.12,4.43,31.88,11.74,7.83,-1.67,1.86,0.55,-28.75,33.93,0.55,-0.66,1.81,3.05,-1.58,7.63,-0.76,1
-2.48,0.03,3.83,16.74,32.25,5.87,-0.17,0.81,-0.2,18.12,-12.95,34.24,-0.06,1.96,0.65,37.97,-12.39,8.03,1
-2.18,-0.12,2.78,-163.92,119.16,-186.02,0.73,-1.44,4.75,77.21,51.99,231.02,-0.21,1.51,0.95,-51.39,23.74,-37.87,1
-1.73,-1.77,0.83,179.34,-85.43,208.02,-1.52,-0.24,1.9,145.08,52.97,65,0.39,1.66,0.35,-69.45,53.04,-98.42,1
-0.83,-0.72,1.73,-10.11,-4.86,7.83,-0.17,-1.14,1.6,-5.31,1.21,-8.24,-0.06,2.71,0.65,-9.88,8.6,-1.74,1
-0.83,-1.92,-0.52,19.67,2.46,2.94,1.18,-2.19,2.35,-4.82,2.68,5.43,-0.06,2.41,0.35,-4.02,1.28,-1.74,1
-0.83,-1.92,1.43,0.14,11.74,-2.91,0.43,-0.54,1.9,7.87,10.49,3.48,1.74,1.51,2.3,-6.46,2.26,4.12,1
-0.83,0.03,0.98,-16.95,1.48,-0.96,3.13,-0.39,3.1,-28.75,35.39,-81,1.44,0.46,1.85,-3.54,17.88,57.83,1
-1.13,-1.47,0.98,-28.67,-14.63,60.56,4.18,-1.29,4.45,116.27,-100.35,228.57,2.94,4.06,3.8,31.13,46.2,-202.91,1
-2.03,-3.42,0.98,8.44,10.27,0.5,4.33,-2.19,8.2,4.45,-3.67,-12.64,3.69,3.31,4.55,15.51,-1.65,6.07,1
-0.08,-2.07,-0.82,9.91,7.34,33.71,5.23,-5.64,10.45,8.85,34.9,11.29,2.94,5.86,6.05,16.48,-17.76,13.4,1
-2.48,-1.47,1.43,-6.21,23.95,3.92,5.53,-7.89,11.95,-1.41,10.98,11.29,2.64,5.71,6.65,-30.88,-6.04,-26.15,1
0.07,-2.37,0.98,112.93,-8.28,58.12,2.53,-8.49,9.85,-58.54,6.58,-11.66,-0.96,6.61,5,-11.35,-16.79,7.54,1
-1.13,-2.37,1.43,112.45,-225.08,651.87,-0.17,-5.34,5.05,14.71,19.77,-306.58,-2.01,2.71,3.65,31.13,-49.99,-50.08,1
-0.98,1.38,0.38,2.09,16.13,1.97,-0.32,-1.29,1.45,1.52,0.72,2.01,-0.96,1.06,1.55,-5.49,-0.19,9.49,1
-1.73,-0.12,0.38,-2.79,-11.21,-5.84,-0.17,-1.14,1.3,-18.01,12.44,-3.85,0.69,0.16,0.65,-2.07,0.79,1.19,1
-0.08,-0.87,0.38,5.51,2.46,-6.82,0.73,-0.39,-0.2,-3.36,10.98,-1.89,-0.96,0.76,-0.25,2.81,10.07,13.4,1
-1.73,0.63,0.38,-2.3,-1.93,3.92,-0.17,0.06,0.55,3.48,3.16,-2.87,0.54,0.31,0.2,10.63,0.79,-2.71,1
-2.78,-0.72,0.23,-1.32,-0.96,-3.4,-0.32,-0.54,-1.25,15.68,9.51,9.34,-0.81,-0.14,-0.1,-3.54,5.19,2.66,1
-1.13,-0.42,0.68,0.63,-7.79,0.99,-0.77,-0.54,0.25,0.06,4.14,-4.34,0.99,-0.44,2.3,10.63,-1.16,4.61,1
-0.38,1.23,-0.22,4.05,-4.86,13.69,0.13,0.21,-0.05,3.96,-14.9,1.03,-0.21,-0.44,-0.55,-6.46,1.77,1.68,1
-0.83,0.78,0.68,0.63,-8.28,9.29,-0.77,-0.24,-0.05,5.43,5.61,-1.41,-0.51,-0.14,-0.1,3.3,13.97,1.68,1
-1.13,1.23,0.23,11.37,15.64,7.34,-0.47,-0.69,1.3,2.01,11.95,6.41,-1.26,0.16,-0.1,8.18,1.77,-7.6,1
-0.98,-0.12,1.28,6.49,9.3,-5.84,-1.07,0.21,1.45,-3.85,0.23,0.06,-1.41,1.06,-0.25,1.84,3.72,10.47,1
-0.08,-0.12,0.83,2.58,2.95,0.5,-1.37,0.06,0.55,-4.82,-8.07,-2.87,-0.06,-0.89,0.35,5.74,2.26,-4.67,1
-0.83,1.23,-0.22,-1.32,1.48,5.39,-0.32,-0.24,0.7,-5.31,-0.25,6.41,0.99,-0.44,-0.25,-2.56,-10.44,1.19,1
-1.58,0.78,1.43,10.4,2.46,7.83,-0.92,-0.69,0.1,-9.22,1.7,-2.38,0.09,0.31,0.2,5.25,-8.97,-13.46,1
-2.18,-0.57,1.58,-3.28,-2.91,11.73,-0.77,0.21,-0.05,-1.41,-4.16,1.52,-1.56,0.16,-0.7,7.21,7.14,-5.16,1
0.22,1.38,1.28,7.95,0.02,-4.38,-0.17,-0.39,0.1,0.55,0.23,-12.15,0.54,0.01,0.5,3.3,2.26,6.07,1
-1.58,-0.72,0.98,-0.35,-14.63,3.43,0.28,-0.69,0.1,0.06,8.05,2.01,0.09,0.01,0.2,-2.56,10.56,-4.67,1
-0.38,0.48,0.68,12.35,-2.42,0.01,-0.92,-0.69,1.3,-6.29,12.93,-3.85,-0.51,-0.14,0.35,4.77,-3.6,6.56,1
0.22,1.08,0.08,8.44,-2.91,11.73,-0.77,0.21,-0.05,11.29,-0.25,6.41,0.39,-0.14,-0.4,-8.42,-2.14,9.98,1
-0.98,0.63,1.28,0.63,3.93,-7.31,0.73,0.81,0.55,-3.36,0.72,9.82,0.69,-0.14,-0.4,2.32,-7.02,-8.09,1
-1.73,-0.12,0.08,-1.81,2.95,5.87,0.28,0.06,-0.2,-6.29,-5.14,0.06,0.09,-0.74,0.95,-2.56,-2.63,-1.74,1
-0.83,0.48,1.43,-3.28,0.02,3.43,-0.77,-1.29,-1.25,15.68,-3.18,10.31,0.09,-0.44,0.2,3.79,-0.67,-1.25,1
-2.03,-0.42,0.68,-15.48,10.76,4.41,0.28,1.11,-0.2,2.99,0.23,0.06,-0.06,1.21,-0.4,12.09,-2.63,10.96,1
-0.38,-0.72,-0.97,3.07,1.97,4.9,1.33,-0.24,-0.8,10.31,3.65,5.43,0.69,-0.14,-0.1,-0.12,-5.56,9.49,1
0.22,0.63,0.08,16.25,11.25,1.48,-1.52,-0.54,-0.05,3.48,-5.14,-4.34,-0.06,-0.14,-0.7,-1.58,-7.51,3.14,1
-0.5,0.08,0.28,2.17,-13.52,-7.97,-0.06,0.41,-0.28,1.12,9.64,-7.09,1.14,-0.47,0.49,-1.11,-0.34,-7.15,1
-1.55,0.23,1.63,-0.76,-2.29,-4.55,0.54,0.26,-0.13,-8.65,-2.08,-2.7,0.39,0.58,1.24,-5.99,-8.15,-2.27,1
-0.35,0.98,-0.32,-1.25,3.08,0.82,-0.66,0.56,-0.13,4.05,3.78,2.67,-0.21,-0.62,1.09,5.73,-3.27,-4.22,1
-1.1,-0.52,-0.32,-2.22,-0.34,-2.6,-0.51,0.11,-0.58,2.09,3.78,-2.7,0.69,0.28,1.24,9.15,1.13,4.57,1
-0.8,0.98,-0.62,-3.69,-6.2,-2.11,-1.41,1.01,-0.88,0.14,12.57,7.55,0.54,0.13,-0.11,-5.5,-4.24,1.15,1
-1.4,0.38,0.73,7.54,3.08,10.59,0.39,0.41,-0.58,1.12,1.83,-6.12,-0.81,0.58,0.79,-4.53,-1.8,5.06,1
-1.7,0.38,-0.02,4.13,3.08,12.05,-0.06,0.11,-1.48,2.09,8.67,4.14,0.39,-0.02,1.54,3.77,11.38,0.66,1
-0.5,2.33,1.18,2.66,19.19,9.12,-1.26,0.11,0.47,-8.65,11.6,4.14,-0.21,0.43,-0.41,2.8,15.29,9.94,1
-2.75,0.68,0.88,0.22,15.78,-1.13,-1.11,1.01,-0.88,2.09,5.25,-2.21,-1.26,1.33,1.99,2.8,-11.08,1.15,1
-2.45,1.43,2.08,0.71,-5.71,-5.04,-1.41,-0.19,0.62,-5.23,7.69,1.69,-0.81,1.03,1.99,3.29,14.8,-3.73,1
-4.1,-1.27,4.48,22.68,6.99,-287.75,-2.46,-0.34,1.67,-40.87,-6.47,22.2,-0.06,0.58,1.99,36.49,-15.47,-51.09,1
-2.45,0.23,6.43,19.75,10.41,-16.27,-2.91,0.41,3.62,1.61,15.5,-8.56,0.54,2.23,1.39,9.63,-1.31,7.01,1
-0.05,0.38,6.28,-14.43,28.96,-26.04,0.84,1.16,5.12,5.51,14.04,-0.75,2.49,2.68,1.69,0.36,11.87,12.38,1
-0.8,-0.22,2.83,-18.82,16.26,40.37,4.14,1.01,6.47,21.14,-7.93,-6.61,2.94,3.43,2.44,-11.36,-8.64,-24.73,1
-0.05,-0.37,-2.87,1.2,40.19,-85.61,2.64,2.21,4.82,-68.71,57.5,65.17,1.14,2.83,1.99,11.59,4.55,22.15,1
-2.45,-0.22,0.13,444.07,-727.88,-516.27,-0.51,3.41,0.47,31.39,-44.07,-56.41,0.54,1.18,1.09,-127.08,3.57,184.75,1
-0.35,0.68,1.33,-19.8,4.06,-6.02,-0.66,2.51,1.52,11.37,3.3,4.14,0.69,-0.77,-0.56,0.36,-0.83,-8.12,1
-0.35,2.18,2.83,-6.13,9.92,-1.13,-1.11,3.26,-1.18,6.49,14.53,7.07,0.09,0.88,-0.86,-1.6,-1.31,5.55,1
-1.7,-0.67,1.48,-0.27,-0.34,-2.11,-1.26,0.41,0.47,-3.76,-4.03,5.11,1.14,0.28,-1.76,3.29,-2.78,1.64,1
-3.05,1.28,2.23,-5.15,-6.2,13.03,-2.01,0.86,-0.28,2.58,-1.59,-5.63,-0.06,1.33,-0.26,-6.97,0.64,-1.78,1
-3.05,2.03,4.33,3.15,129.55,103.36,-1.11,2.21,0.32,-10.6,-58.23,17.81,-1.56,1.03,-1.31,16.47,-38.42,-43.77,1
-4.25,1.28,5.83,6.08,10.41,-19.2,-2.61,1.46,2.27,10.4,12.08,-2.21,0.54,0.13,-1.16,-15.27,8.94,-16.91,1
0.1,-1.72,11.98,10.96,5.03,52.58,-1.26,1.91,2.42,-23.3,4.76,4.14,-0.66,1.18,-0.11,-3.55,13.82,9.94,1
1,-0.52,10.33,4.13,-12.54,-39.22,-1.41,2.21,3.77,21.14,-0.12,53.94,-0.81,1.33,0.49,-1.11,-37.45,-50.12,1
-0.95,1.28,5.08,-377.71,-25.73,367.52,-1.26,1.61,3.92,68.99,43.82,58.33,-0.81,1.03,0.49,78.97,24.57,40.22,1
0.7,1.58,-0.47,214.09,34.82,-849.28,-0.21,1.01,0.62,-510.11,-20.14,367.91,-0.21,0.88,-0.86,-166.64,191.07,505.06,1
0.55,0.98,0.88,-1.25,8.45,7.17,0.09,1.76,-0.13,-0.83,0.37,-0.26,-0.66,0.43,-1.61,6.7,-13.03,-0.8,1
-0.5,0.08,-0.47,-8.08,-0.83,7.66,-0.06,0.86,-0.28,-9.62,-1.1,-12.95,0.69,1.78,0.04,7.68,-7.17,-10.57,1
1.15,1.58,0.28,-6.62,6.5,-3.09,-1.11,1.01,1.52,-6.21,-2.08,3.65,-0.06,0.28,0.49,-3.55,1.13,6.04,1
-0.05,0.38,0.28,-7.1,6.5,-9.43,0.84,0.86,-0.58,-5.23,-1.59,-7.09,1.14,-0.02,-0.56,5.73,-3.75,-4.71,1
-0.8,0.68,-0.32,-2.22,7.48,5.21,0.99,-0.19,1.07,-4.25,-6.47,-9.05,0.69,-1.22,-0.56,-7.46,0.64,3.59,1
-0.35,1.43,-0.62,-8.57,4.06,-2.6,0.09,-0.49,-0.88,1.61,3.78,0.72,0.69,0.58,0.04,0.84,8.45,0.66,1
0.55,0.68,0.13,-11.01,-1.8,3.26,-0.21,0.26,-0.43,-9.14,10.62,-1.24,0.99,-0.92,-0.41,3.29,5.03,0.66,1
-0.35,0.68,2.08,1.2,-6.2,-1.13,0.99,-0.19,-0.88,-2.79,-9.89,4.62,0.09,-0.92,0.34,-0.62,-1.31,-8.61,1
-1.55,0.68,-0.32,-1.25,3.57,-2.6,-1.11,-0.19,-0.13,-5.23,3.3,-0.26,1.14,-1.52,-1.31,9.15,10.89,1.15,1
-0.35,0.98,0.58,-9.55,-2.29,1.8,0.54,-0.49,-0.43,-7.18,7.2,-2.21,1.14,0.58,0.79,-3.06,-8.64,-5.68,1
-1.1,0.68,0.13,-2.71,6.99,1.31,0.54,-0.94,-0.13,-2.3,7.2,2.18,-0.06,1.03,0.79,6.22,-4.24,1.15,1
0.1,-0.52,1.33,8.03,7.48,3.75,1.59,0.41,0.92,-2.79,0.85,3.16,-0.06,-1.22,0.04,0.84,12.85,-5.68,1
-3.2,0.23,0.13,-5.64,-9.13,-11.39,-0.66,0.56,-0.43,-4.25,-5,-1.72,0.54,0.13,-0.11,-5.5,1.13,-0.31,1
-0.35,1.43,0.13,-10.52,0.64,-1.62,-0.51,-0.34,-0.58,-9.14,-0.12,-3.19,-0.21,-0.32,-0.11,9.15,10.89,6.52,1
-0.95,0.83,-0.02,-1.73,-0.34,-8.46,0.84,0.41,-0.28,-6.69,-5.49,-0.26,-0.81,-0.02,-0.26,1.33,1.13,-0.31,1
0.55,0.23,0.13,-1.73,1.13,6.68,0.39,0.11,0.17,-6.21,14.04,-11.49,-1.26,-1.22,0.49,6.22,-3.75,-5.2,1
-0.95,0.08,-0.92,2.17,-0.83,14.49,0.54,-0.49,0.62,-7.18,-11.84,8.53,0.69,-0.02,-0.26,1.82,6.99,-8.61,1
-1.7,0.83,-0.02,2.66,15.29,-2.11,-0.21,0.26,1.07,-7.67,-5.49,6.58,-0.51,0.58,0.79,14.03,0.15,6.04,1
-0.95,-0.37,0.28,-0.27,11.38,11.07,-0.06,1.16,-1.78,2.58,-6.47,-2.21,-0.66,-0.32,-0.41,6.22,7.48,-1.29,1
0.7,0.83,-0.92,-3.69,7.48,-3.09,-0.06,0.11,0.17,-2.79,-3.05,-6.61,1.29,-0.92,-0.11,-9.9,-5.22,2.13,1
-0.35,2.18,0.88,-4.66,1.13,-2.11,-1.11,-0.19,1.07,3.07,-5.49,-5.14,0.39,-0.77,-0.56,2.8,-3.27,-11.05,1
-1.4,0.83,1.18,-7.59,-4.24,-1.62,0.09,0.26,0.32,1.61,-0.12,-0.75,-0.21,0.13,0.34,3.29,-2.29,0.18,1
0.1,-0.97,-0.32,1.68,6.01,0.33,0.99,-0.19,-0.13,-2.3,3.3,7.55,1.29,0.43,0.34,2.8,0.64,5.55,1
-0.5,1.28,-0.47,-6.13,6.5,-3.09,-0.81,1.16,-0.28,3.56,-4.03,-3.19,0.09,0.43,-0.86,-1.6,-3.27,-14.96,1
-2.1,0.77,-1.71,-14.21,11.76,2.35,-0.44,-0.53,0.2,8.53,7.47,8.73,1,-0.44,0.15,2.54,-4.88,1.54,1
-0.45,0.32,-0.51,11.67,1.02,0.89,-0.14,0.67,0.2,-2.21,7.95,8.73,0.1,-1.04,0.45,6.94,13.68,3.49,1
0.3,1.22,1.44,-5.42,13.72,-10.83,0.16,1.27,0.35,-1.72,-11.09,7.26,-0.65,0.01,-0.6,0.59,-11.23,-1.39,1
-1.05,0.92,0.09,-2.5,-0.44,-5.95,-0.14,-0.53,-0.25,5.6,-3.76,13.12,0.1,-0.74,1.2,-2.34,-1.46,-7.74,1
-1.35,1.22,-0.96,-8.35,-0.93,-0.09,0.91,0.07,-0.1,-9.54,-4.74,-4.95,-0.8,-0.59,0.3,1.08,7.33,-8.72,1
-1.65,1.97,-0.51,-7.38,7.86,3.33,1.51,0.22,-0.55,0.23,-11.58,3.35,1.15,-0.14,0.45,-0.87,5.38,4.47,1
0,1.52,-0.06,6.29,0.53,9.19,1.36,0.07,0.65,-7.09,-8.16,2.38,0.1,0.01,-1.05,4.5,2.45,-5.79,1
0.75,0.77,-0.51,-2.01,5.9,-3.99,1.81,0.82,0.35,-4.65,-7.67,-0.55,-0.2,0.31,-0.3,-9.66,-6.34,-6.76,1
0.75,1.22,1.89,6.29,4.44,-77.72,1.36,0.82,-0.1,-3.19,3.56,14.1,0.55,0.01,0.15,10.36,2.45,-25.32,1
0.3,0.77,-2.01,-37.65,53.27,-9.37,-0.74,2.32,-0.4,191.64,-41.85,325.62,0.4,1.21,0.6,-414.94,-159.66,49.88,1
1.05,5.27,-6.66,17.52,-10.21,3.82,0.31,2.92,-2.2,12.44,9.91,-14.22,-1.25,-0.59,0.6,32.82,-9.27,12.28,1
6.9,12.62,-10.11,-18.12,35.2,55.58,4.96,1.27,3.05,2.18,15.77,49.74,1.15,-1.34,-0.15,-1.36,3.42,33.76,1
9.6,15.17,-7.26,30.71,43.5,63.88,6.16,2.02,3.35,14.39,5.51,-7.88,0.1,-0.44,0.45,-8.2,-1.46,-1.88,1
3.75,4.67,-2.46,-11.28,14.69,-48.92,4.81,0.97,2.75,-151.14,80.22,-112.37,0.4,-0.59,0.6,121.2,99.61,115.8,1
-0.75,1.37,0.09,8.74,5.42,-5.95,0.16,0.37,1.1,-5.14,2.09,5.8,0.7,-0.14,-0.15,279.4,158.7,163.65,1
-2.7,-0.28,-0.36,-2.5,0.04,2.84,0.16,-0.68,1.55,1.21,6.98,4.33,0.7,0.46,-0.75,-10.15,-1.46,-5.79,1
0,0.02,1.89,-3.96,0.53,-6.92,1.51,-0.53,0.2,6.09,9.91,2.38,1.15,0.91,-0.15,-10.64,3.91,-0.9,1
-1.5,0.17,1.59,14.11,29.34,-8.39,2.11,1.27,3.05,-42.25,22.6,-85.02,2.05,0.76,0.9,5.47,22.95,76.25,1
-1.5,-0.28,5.19,31.2,6.39,53.62,0.31,0.22,4.4,18.78,0.14,40.46,1.45,0.46,1.8,209.58,34.18,26.93,1
0.6,-3.28,6.39,13.62,16.16,102.45,1.36,2.02,7.25,17.32,-20.85,0.91,0.7,1.96,2.55,31.84,7.82,15.21,1
1.35,-2.98,8.34,47.31,20.06,26.28,0.16,1.57,8.3,63.22,-19.88,-20.08,0.7,0.16,1.8,-92.67,4.4,-74.63,1
-0.45,-0.43,5.79,170.36,-22.91,-26.94,0.16,0.07,8.3,27.08,56.29,2.38,-0.2,0.76,0.9,-37.01,-20.01,14.72,1
-3,-0.43,1.14,-14.7,0.04,1.38,-1.34,-1.28,1.25,-3.19,-2.79,5.31,-0.8,0.91,0.3,-244.53,-175.29,188.55,1
-2.55,1.22,0.24,-3.96,-0.93,5.28,-0.89,-1.28,0.2,3.16,-1.32,8.24,0.4,-0.14,-0.75,11.33,0.98,-2.86,1
-1.35,0.02,0.24,-6.89,2.97,-0.09,-0.29,0.82,0.65,2.18,5.51,2.87,-0.05,0.91,0.3,-0.87,4.4,-1.88,1
-0.9,1.22,0.69,9.71,10.79,0.89,0.31,-0.53,-1.45,10.48,-6.69,0.91,0.7,-0.89,1.8,-11.13,-0.48,-4.32,1
-1.95,0.17,0.54,-10.31,-12.16,-6.92,-0.44,0.22,0.95,-4.65,-2.79,2.38,-1.4,0.31,0.15,3.03,3.42,-9.69,1
-1.65,0.32,-0.06,-6.89,-6.3,0.89,0.16,-0.68,-0.4,-6.12,-2.3,1.89,1.15,-0.59,-1.2,-4.78,-11.23,-3.83,1
-1.05,2.12,-0.66,-3.96,-7.28,-4.97,0.31,0.22,-0.25,-3.19,-4.25,9.7,-0.8,-0.14,-1.2,-0.87,-14.64,-3.83,1
-1.05,1.37,0.09,-3.47,8.34,0.89,-1.04,0.37,0.35,-2.7,15.77,3.84,1.3,0.76,0.9,-11.13,-0.97,-5.79,1
-1.05,0.62,-0.36,7.76,4.44,-1.06,0.31,0.67,-1,6.09,9.42,6.28,0.7,0.46,-0.15,-2.34,-5.37,-9.2,1
0.15,1.37,-0.36,-5.42,3.95,4.79,-0.29,-0.68,0.65,-1.72,6,12.14,1.3,-0.44,0.9,-12.1,6.84,-6.27,1
1.2,0.77,-1.26,-1.03,3.46,-5.95,-0.89,0.22,0.5,-7.09,6.49,5.31,0.55,-0.44,0.15,-5.76,-0.97,-13.11,1
-1.05,1.67,1.29,10.69,3.95,-0.58,-0.29,-0.38,-0.85,-2.7,-0.83,-1.04,-0.65,0.76,1.95,-7.71,2.45,5.93,1
0.6,0.92,0.54,2.88,-2.89,-4.48,0.16,-0.68,1.1,-2.21,0.14,4.33,0.1,-0.44,0.9,-9.17,-10.25,-9.2,1
-0.3,0.62,0.84,-5.42,3.95,9.19,0.76,-0.53,0.95,3.65,3.56,10.19,-1.4,0.01,0.15,-8.69,13.19,1.05,1
0,-0.43,0.24,-5.91,8.34,2.35,-0.14,0.67,-0.25,-10.02,-6.69,8.24,0.7,0.91,0.6,-3.8,0.98,5.93,1
-0.9,-1.18,0.69,5.81,7.37,-7.41,0.46,0.82,-0.4,-8.07,3.56,8.24,-0.5,-0.89,0.6,1.08,10.26,-2.86,1
-0.9,0.02,-0.51,-8.35,17.13,4.79,-0.14,-0.08,-0.55,3.16,4.05,-2.51,-0.8,-0.89,-0.15,4.5,-1.95,3.49,1
0,0.77,-0.51,6.29,6.88,-0.58,0.31,0.97,0.95,-0.26,1.61,11.17,-0.8,-0.14,0.6,10.36,2.93,-3.34,1
-0.3,-0.28,-1.11,-6.4,6.88,9.19,0.16,0.37,0.35,13.9,-1.81,5.8,0.4,-0.89,-0.75,-12.59,3.91,-2.37,1
0.75,1.97,0.69,1.41,-0.93,8.7,1.21,0.97,-0.55,10.48,6.49,-3.97,0.1,-1.49,0.9,5.47,-2.92,-2.86,1
-0.9,0.02,1.14,-8.35,2.49,-9.37,0.16,-0.68,-0.1,-9.05,4.05,1.89,1,-0.44,0.9,0.59,-8.3,3.49,1
-1.35,0.77,0.24,-3.96,-1.91,8.21,0.76,0.97,-0.55,-1.72,5.51,8.73,-0.2,-0.74,1.5,-1.36,-6.34,-4.32,1
-0.3,0.92,-0.36,1.9,0.53,-0.09,-1.34,1.42,-1,4.14,2.58,5.8,-0.05,0.91,0.3,4.5,1.47,6.91,1
-0.9,0.02,-0.51,-2.5,10.3,-2.53,0.31,1.72,-0.25,4.14,-7.67,-2.02,0.55,1.51,-0.6,4.5,-8.3,-5.79,1
-1.5,2.12,0.09,-1.03,1.02,-2.53,-0.89,0.97,-1.45,7.55,-6.69,13.12,-0.05,0.46,-0.45,8.4,17.58,2.51,1
-0.45,1.22,-0.06,0.43,-3.37,4.79,-0.44,0.67,0.95,-9.54,6,8.73,-0.05,-0.89,0.6,1.08,0,-13.6,1
-1.5,0.62,-1.11,-7.87,0.53,10.65,-1.64,0.97,-1,1.69,-8.16,-0.06,1.15,0.46,0.6,-5.76,2.93,3,1
-0.3,2.87,0.54,13.13,4.44,-3.02,0.16,0.07,-0.1,-2.7,-11.09,-0.55,-0.5,-0.59,0.6,4.01,-3.9,-5.3,1
0.84,-0.18,0.44,-0.35,-2.31,-5.14,0.49,0.77,-1.5,1.27,2.49,0.3,-0.5,1.7,-0.12,-1.9,21.58,-9.07,1
-1.26,-0.63,-0.01,-3.77,-4.75,-16.37,-0.41,0.02,0.15,-4.1,-2.88,-1.16,0.55,0.05,1.23,-5.81,7.91,1.67,1
0.24,-0.03,-0.16,-6.7,-7.68,-8.56,-0.41,-0.43,-0.3,12.5,-1.42,11.04,-0.5,-0.55,0.33,-4.83,0.58,-16.88,1
-0.06,-0.63,-0.01,-7.68,-2.8,-2.7,0.64,1.37,-0.9,1.76,-1.42,-3.6,0.7,0.2,-0.12,4.94,-6.25,-8.1,1
-0.81,-0.63,-0.46,-6.21,-0.36,9.99,-0.41,-0.43,0.9,-3.61,7.37,-4.09,-0.2,-0.4,0.93,13.24,8.88,2.65,1
-0.81,0.12,-0.46,0.62,5.01,-10.51,0.04,-1.18,-0.3,0.3,7.37,3.72,0.7,0.2,-0.12,-2.88,1.56,-5.17,1
-1.26,-0.63,-0.01,-4.75,0.13,-10.02,0.04,0.77,1.2,-0.19,2,-5.56,-2.15,0.8,0.93,4.94,-2.35,2.16,1
-0.36,-0.63,0.44,-4.75,11.36,-1.72,-0.71,-0.43,1.65,-6.05,-5.81,0.3,0.4,0.5,1.08,-2.88,-6.74,-8.1,1
-1.41,0.72,3.29,4.04,-10.61,-118.42,-2.21,0.17,2.25,-22.16,22.51,-10.44,-0.5,1.25,-0.12,-1.41,-3.33,8.99,1
0.99,1.47,3.29,15.27,-2.8,-15.4,2.14,0.32,2.4,-6.05,18.6,-7.02,1.15,0.5,2.58,35.21,-6.74,-12,1
5.79,0.87,2.69,8.93,16.73,12.92,7.99,3.17,0.3,3.23,28.37,-7.51,0.55,0.35,1.53,-4.83,2.05,-1.75,1
4.59,-0.18,-0.01,14.79,15.76,6.09,10.54,2.57,0.9,-11.42,-4.83,14.46,1.3,2.9,1.98,60.11,-76.08,107.63,1
2.94,0.12,-0.76,45.55,4.04,40.27,7.39,2.57,-1.05,-1.17,38.13,43.76,-0.2,0.8,1.23,-9.22,-4.79,7.53,1
2.49,-0.63,-0.01,155.41,-7.19,-571.06,1.54,2.42,-0.45,-38.28,-19.97,78.43,0.1,1.55,0.48,158.26,104.58,62.22,1
0.84,-0.18,1.19,-1.82,6.97,11.46,1.24,1.52,0.9,3.23,3.47,-9.46,0.55,1.85,-1.77,639.21,-529.2,-1817.18,1
0.69,1.17,1.79,-14.02,11.85,-4.65,0.04,2.27,0.9,-6.05,-21.44,6.16,0.4,0.5,-1.17,0.05,1.56,7.04,1
-0.81,0.87,1.49,0.14,1.11,-0.75,0.04,-0.43,0.45,-6.54,-6.3,-7.02,0.4,0.95,-0.42,-0.92,-7.72,2.65,1
-0.96,-0.48,1.79,-7.68,-8.17,-12.47,-1.61,1.07,0.15,13.48,-5.32,-5.56,-0.8,0.5,-0.72,-2.39,3.02,-3.21,1
-2.01,-0.63,1.49,28.95,19.66,-108.17,-0.56,-0.28,1.5,-24.12,13.72,-21.18,-0.65,1.1,-0.57,-15.08,-8.7,-38.86,1
-1.71,-1.38,3.89,22.6,4.53,-28.58,-1.76,2.12,4.8,8.11,23.97,-7.51,-0.2,1.85,-0.27,12.75,-14.07,-0.77,1
0.69,-1.53,4.49,-44.3,30.41,-10.02,-1.16,5.57,6.15,-5.07,2.98,24.23,-0.65,1.55,-0.57,7.38,-4.3,-14.44,1
-0.36,-1.83,2.69,15.76,6.48,-68.13,1.69,7.97,6.15,71.59,-16.55,-10.44,0.4,2,1.08,149.96,-111.24,12.41,1
-0.96,-0.03,2.54,-151.23,124.16,549.55,2.14,6.32,5.85,-1.17,-12.65,-32.41,-0.65,1.1,1.23,82.08,-6.74,2.65,1
0.24,-0.48,2.99,-471.05,-103.38,218.49,1.24,0.77,2.4,250.3,24.95,456.36,-0.5,1.25,1.08,188.04,-17.97,-175.09,1
1.74,0.87,0.74,5.02,1.6,-3.19,-0.11,0.17,2.55,4.69,-1.9,1.28,1.9,0.95,-0.12,5.91,3.51,-13.47,1
1.29,0.12,-0.01,7.46,13.32,-5.63,-1.76,0.47,-1.65,-9.47,-4.83,2.26,0.4,0.95,0.33,-12.15,4.49,3.13,1
-0.06,-1.08,-0.76,3.07,0.13,8.04,0.94,0.02,-1.05,2.74,2,-8.97,-0.05,-0.1,0.33,10.8,2.53,-5.65,1
1.44,1.17,0.59,2.09,-3.29,-0.75,-0.56,0.47,0.6,-3.61,-1.42,5.67,1.3,0.05,-0.57,-2.88,-6.25,8.02,1
1.29,0.87,-0.46,-10.12,5.5,-3.19,0.04,-1.18,0.15,8.11,7.37,12.51,-0.2,0.35,0.18,2.01,-2.84,1.67,1
-0.96,-0.48,0.59,-5.72,10.39,-1.72,0.04,0.32,-0.3,0.79,-1.42,-7.02,-0.2,-1.75,0.48,-2.39,10.35,-2.72,1
-0.36,0.87,-0.46,-0.84,1.11,1.21,0.04,-0.73,0.15,5.18,5.42,-9.46,-0.5,-0.1,1.83,9.82,-5.28,5.58,1
-0.66,0.42,-0.16,4.53,5.01,0.23,-0.11,-0.28,-1.2,-2.14,6.4,3.23,-0.65,0.05,-0.27,14.7,13.28,2.16,1
0.24,0.42,-0.16,6,-5.73,1.21,1.09,0.17,0.3,1.76,-0.44,2.26,-0.95,0.35,0.48,12.75,5.95,-4.19,1
-0.66,-0.78,-0.61,-7.19,8.92,7.55,0.19,0.17,-0.9,-19.23,-12.65,-1.16,-0.95,-1,0.18,-7.76,0.09,-1.26,1
-0.66,-0.78,0.14,-2.3,-0.84,-6.61,-1.01,1.37,0.3,1.27,-13.13,-0.67,0.55,0.35,-1.32,-13.62,-2.84,3.62,1
-0.36,0.57,0.44,15.76,-6.22,-2.7,0.04,0.02,-0.3,6.65,2,-0.67,-0.5,0.95,0.33,4.45,-1.86,16.32,1
-0.36,-0.63,0.44,4.53,-3.29,-0.75,-1.61,0.02,-0.3,9.09,5.42,-5.07,-0.2,0.05,-0.57,3.96,7.91,2.65,1
0.69,0.42,0.14,-3.77,5.01,2.67,1.24,0.02,-0.3,-4.58,4.44,-6.04,-0.65,0.05,-0.57,-7.27,-1.37,-11.51,1
1.29,0.12,-0.46,0.14,-3.29,8.53,0.19,-0.28,-0.9,-6.05,-0.93,-8,-0.8,-0.1,-0.12,-0.43,2.53,3.13,1
-0.21,-0.48,0.14,-0.84,4.04,-12.95,1.09,-0.58,-0.15,2.25,7.37,-3.6,-0.2,1.55,0.48,0.05,2.05,15.83,1
-0.66,-0.48,0.14,6,9.9,0.72,0.64,1.37,-0.45,-17.77,-2.39,-0.19,-1.4,0.05,-0.57,0.05,-0.88,2.16,1
0.69,0.42,0.14,2.58,5.5,1.21,0.04,0.77,-0.6,-1.66,-2.88,-0.67,0.4,1.25,-0.42,-2.88,-8.21,-8.58,1
-0.21,0.42,0.59,1.6,8.92,2.18,-0.41,0.77,-0.6,-1.17,-3.37,-4.58,1,0.05,0.18,-7.27,5.95,-1.75,1
-0.06,-1.08,-0.76,4.04,-2.8,8.04,0.64,0.17,-0.15,7.62,3.96,-8.49,-1.4,-0.4,-0.57,2.01,-5.28,-10.05,1
2.04,1.77,-0.76,-7.68,3.55,4.14,0.04,1.52,-1.05,1.76,-1.9,-8.97,-0.5,-0.55,-1.47,2.5,3.51,-0.28,1
0.39,-0.63,-0.46,-5.23,-9.15,7.55,0.19,0.92,-0.45,1.76,-2.88,3.72,0.55,-0.7,-0.27,-8.74,4.49,-12.98,1
-0.21,-0.78,0.59,3.55,-0.84,1.69,1.24,0.02,0.9,-9.47,-4.83,3.72,1,-0.4,-1.02,-5.32,-7.23,-3.21,1
0.24,-0.03,0.14,-6.21,3.55,-6.61,-0.56,-1.03,-0.9,6.16,-1.9,3.23,0.4,0.2,-0.42,3.47,-12.6,-5.65,1
1.29,0.87,0.44,-2.79,10.39,3.16,0.19,0.47,0.3,9.09,5.91,-9.46,0.7,-0.1,-0.12,-3.85,-10.16,-8.58,1
-0.96,-0.03,0.14,-13.05,7.46,4.62,0.49,0.02,-1.5,-9.96,-3.37,-3.6,0.4,-0.1,-0.12,10.31,-1.37,-8.1,1
-0.22,0.95,1,3.09,-2.74,0.06,0.09,0.03,0.52,-2.82,-5.06,1.24,-0.24,0.26,-0.45,-3.98,-5.57,0.35,1
-0.07,0.05,-0.05,-0.82,-6.16,-7.26,0.69,-0.57,0.67,8.9,-3.11,5.14,-0.54,0.86,0.45,-3.98,3.22,-4.53,1
1.28,2,0.7,-5.21,-5.67,-4.82,0.39,1.23,-0.23,-9.65,1.29,-1.69,-0.24,0.26,-1.2,7.25,0.29,15.98,1
1.43,0.95,0.55,6.51,9.95,-0.42,1.14,-0.12,-0.08,-12.09,10.08,-1.21,-0.24,-0.04,-0.45,11.15,1.27,-8.44,1
-0.82,0.8,0.4,-7.65,-7.63,-4.33,1.14,-0.57,-0.08,8.41,-5.06,0.75,0.06,-0.49,-0.45,-5.45,8.11,-1.11,1
0.23,-1,0.55,7,-8.6,-3.84,1.44,-0.12,1.42,7.44,4.22,-1.69,0.36,-0.64,-0.6,-2.03,4.69,6.21,1
-0.67,-0.25,0.55,-12.05,21.18,-18,0.69,0.18,0.67,-2.33,-5.06,11.98,-1.29,-0.19,-0.6,4.8,-9.96,9.63,1
1.28,1.55,-0.05,68.52,7.02,-6.28,1.14,1.38,1.12,24.53,19.36,20.77,0.36,-0.94,0.15,78.54,-23.14,30.14,1
-0.07,0.35,-1.25,5.53,7.51,7.39,2.49,-0.72,1.27,-5.26,-2.13,17.35,-0.09,0.41,-0.6,7.25,7.13,-1.11,1
0.38,1.1,-0.05,3.09,10.93,5.92,0.69,-0.12,1.12,16.23,-6.04,-2.67,1.71,-0.49,1.35,1.39,-8.5,0.35,1
-0.37,0.35,-0.8,-3.26,5.07,5.92,0.39,-1.17,0.82,4.51,-5.55,-6.09,-0.24,-0.49,-1.5,-3.01,10.06,9.14,1
-0.22,1.7,0.55,-23.76,8.49,-1.89,-0.21,0.18,-0.08,4.02,-17.27,-5.6,-0.24,-1.54,-0.75,-20.59,-11.91,-9.9,1
1.43,3.65,0.55,-15.46,-7.63,-3.35,1.74,0.03,-0.98,8.9,11.05,3.68,-0.84,-0.64,0.15,9.2,-6.54,-9.9,1
0.23,-0.25,0.1,-30.11,-26.67,-24.35,0.09,0.03,-0.68,-17.95,-17.27,-2.67,-0.09,1.91,0.15,-57.7,-31.93,27.7,1
0.98,0.95,0.1,8.95,34.37,-788.51,0.39,-0.42,0.07,146.11,-84.65,-481.67,-0.54,-0.94,-0.6,16.04,54.98,86.29,1
1.73,0.8,1.9,-13.51,6.04,3.48,-0.81,0.78,0.52,7.44,-1.15,-3.16,0.66,-0.64,0.45,-6.91,1.76,-10.88,1
-0.37,0.8,1.45,-4.23,-5.19,9.34,0.24,-0.12,0.37,-2.82,-7.01,1.24,1.41,0.11,-0.9,-2.52,6.64,1.82,1
-0.07,1.55,-0.5,4.56,5.07,-6.77,0.24,0.18,0.67,7.92,2.27,0.26,-0.69,0.26,-0.75,-4.96,5.66,6.7,1
1.88,0.2,1,-5.7,2.14,-2.38,-0.51,0.18,0.37,6.46,-3.11,-5.11,0.36,2.36,-0.3,12.13,0.78,2.3,1
1.73,1.55,0.4,2.11,7.51,0.55,0.84,1.53,0.82,-4.77,9.1,-6.09,-0.84,0.11,0.45,1.39,5.66,2.79,1
0.68,0.95,2.5,-35.48,-9.58,37.66,1.29,0.33,-0.98,6.95,-34.84,-70.05,0.96,-0.49,-0.75,-15.21,55.96,54.06,1
-0.37,1.1,1.15,32.88,13.86,12.27,0.84,0.33,0.82,4.02,3.73,0.26,1.11,0.86,-0.9,-9.84,20.31,-3.55,1
0.68,1.7,1.3,-20.35,-3.72,1.04,0.69,-0.12,1.87,6.46,-15.8,-3.65,0.06,1.01,0.3,7.25,-7.52,-6,1
0.98,1.7,2.5,23.11,1.65,14.22,-0.21,0.18,1.42,-5.26,12.03,5.63,-0.84,2.36,-1.35,1.87,-3.61,-2.58,1
-0.82,2,2.35,10.42,-21.79,61.59,0.39,0.03,1.27,-5.75,-20.68,11.98,-0.84,-0.64,-0.9,-24.49,2.73,-0.62,1
-0.07,1.55,0.4,-4.23,10.93,-11.66,-0.21,-0.87,1.12,-17.47,-12.87,-3.65,0.96,-0.49,-1.2,-7.4,-10.45,-5.51,1
0.68,0.65,1,-14.98,-20.32,12.27,-0.21,-0.12,1.42,-18.44,-17.75,-18.78,0.51,-0.79,2.1,1.87,18.36,16.95,1
-0.67,-0.25,0.1,-168.78,73.43,-88.8,-0.21,1.68,-0.38,-13.07,9.59,11.98,1.26,-0.79,-0.75,39.47,23.24,27.21,1
-1.42,0.65,-1.1,-16.93,13.37,6.41,0.09,0.03,-0.23,-5.75,-13.85,6.12,-0.09,-0.19,-1.35,-16.19,8.59,15,1
-1.42,0.2,0.55,-3.26,-1.77,-17.03,-0.96,-0.57,0.37,-16.98,2.27,-14.39,-0.24,-0.04,0.3,8.22,5.66,-7.46,1
-1.42,0.2,0.55,0.65,6.04,2.51,-0.51,-0.12,-0.38,1.09,-10.43,-3.65,0.66,-0.19,0.15,-1.54,-8.01,1.33,1
0.38,0.05,0.4,4.07,-3.72,2.02,0.09,0.03,0.07,1.58,11.05,-4.62,-0.99,-0.04,0.3,-5.45,-6.05,0.84,1
-0.22,-0.25,0.1,-4.72,-3.23,2.51,-0.21,0.18,-1.28,-6.72,-1.64,2.21,-0.24,0.26,0.75,-2.52,-9.47,-1.6,1
-0.07,1.1,-0.5,-2.28,-4.21,1.53,-0.21,-0.12,-0.83,-0.38,-7.01,-5.6,0.96,1.76,-0.45,5.29,4.2,-2.58,1
-0.22,-2.2,1,2.11,4.09,5.43,1.14,0.18,-0.08,16.23,-2.13,-8.53,0.06,-0.49,0,-5.94,-2.15,-14.79,1
0.23,0.65,-0.2,-4.23,-4.21,-19.96,0.39,-0.42,-0.68,10.85,6.66,-3.65,0.06,0.71,-0.45,12.62,0.29,0.84,1
-0.07,1.1,0.7,-1.79,-5.67,-2.87,-0.51,-0.57,1.42,19.16,0.8,7.09,0.51,-0.04,-0.45,5.29,9.08,-7.46,1
0.83,0.05,-0.8,-12.53,7.02,5.43,-1.11,-1.17,-0.38,2.55,-10.92,10.02,-0.09,0.41,0.45,-0.57,0.29,4.26,1
0.38,-0.85,-0.8,1.63,7.51,-9.7,1.29,-0.72,0.07,2.07,5.2,-2.18,0.06,-0.79,0,-0.08,2.25,-5.02,1
-0.07,0.8,-0.5,-3.75,3.6,-10.68,1.29,-0.72,-0.98,-3.79,-9.94,-1.21,0.36,-0.64,-0.6,-3.98,10.06,11.09,1
1.28,0.05,-0.05,8.46,-1.28,3.48,0.84,0.03,0.07,5,-0.66,-3.16,-1.44,0.71,-0.75,1.39,3.71,-6.97,1
0.23,0.65,-1.1,2.11,-7.14,2.99,1.14,-0.12,-1.28,-10.14,-13.36,13.44,-0.54,-0.19,1.2,-3.98,-11.43,-10.88,1
0.68,0.65,-0.2,-2.28,-11.53,-4.33,0.69,-0.12,-0.08,-12.09,-3.11,-0.23,0.66,-0.19,-0.3,2.85,-4.59,-0.14,1
0.68,1.4,-1.4,-6.67,-3.72,1.04,0.09,0.03,1.27,5,-2.62,6.12,-0.09,0.11,-0.9,-4.96,6.64,-5.51,1
0.38,-0.4,0.7,-8.14,-2.74,1.04,1.14,-0.12,0.67,-0.86,-2.13,12.95,0.36,0.41,0.15,0.9,-0.68,0.84,1
-0.37,0.05,-0.05,-5.21,-4.21,4.46,-0.36,0.33,0.52,4.02,7.15,0.75,0.66,0.11,0.15,-4.47,-0.68,-0.62,1
-0.82,0.8,-1.25,-5.21,11.42,9.83,0.84,0.33,-0.23,9.88,-4.08,1.72,-0.24,-0.04,0.3,-8.87,12.5,-0.14,1
-0.67,-0.25,0.1,-2.77,-1.28,2.02,0.09,-0.72,0.07,-0.86,1.78,3.68,-1.29,0.41,0.15,-1.54,6.15,-1.6,1
0.23,-0.55,0.1,4.07,-4.7,-8.73,0.24,0.18,0.67,2.55,-3.59,2.7,0.51,0.71,0,-3.5,1.76,5.72,1
-0.07,0.8,-0.5,13.34,1.16,9.34,-0.81,0.33,-0.23,0.11,0.8,4.65,-0.84,-0.94,0.15,11.15,-2.15,-4.04,1
-2.09,0.77,0.67,0.66,-1.41,10.76,0.18,0.76,-0.17,5.19,-4.68,3.42,-0.74,0.58,0.42,-6.04,0.49,-7.78,1
-1.94,1.82,-0.68,8.47,-6.78,5.39,-0.72,0.01,0.58,-0.19,1.67,3.91,-1.04,1.18,1.32,7.14,0.49,-2.9,1
-2.69,0.62,0.97,3.1,4.94,-8.28,-1.02,-1.19,-0.17,-9.95,-1.75,-1.46,0.31,2.08,-1.08,3.73,-4.39,13.21,1
-2.09,1.52,1.87,15.8,0.05,0.02,-1.92,0.01,1.33,-0.67,-11.03,-2.44,0.01,-0.47,-0.03,-0.18,-8.78,1.98,1
-2.09,0.47,1.42,-7.64,2.01,2.46,-1.92,0.01,0.28,-16.79,8.5,15.14,-1.19,0.28,1.17,8.12,0.49,6.38,1
-4.64,-0.73,1.42,-41.82,23.49,10.76,-1.92,0.31,1.33,-7.02,-5.17,3.42,-0.59,0.73,0.57,-0.18,-11.71,1.01,1
-2.99,1.22,0.67,56.81,21.05,8.81,-2.22,0.76,1.78,-67.57,47.08,-0.97,-0.29,2.68,1.62,-55.84,7.82,-99.58,1
-1.94,2.57,2.47,18.24,4.94,6.86,-1.62,0.16,2.68,-0.19,-0.29,-8.3,0.01,1.78,0.42,6.66,7.82,0.52,1
-0.29,3.32,1.27,-1.78,10.8,-4.86,-0.42,0.16,5.38,8.6,11.92,16.61,0.16,1.93,1.62,15.44,4.4,6.87,1
1.06,3.02,0.97,-3.25,4.45,1,0.78,2.86,5.38,-4.09,-45.21,287.6,1.21,2.38,2.97,4.7,-14.64,-19.99,1
-1.64,1.22,-0.53,49.49,58.16,40.55,0.63,1.51,6.28,-15.81,28.52,-2.44,1.51,2.38,2.97,45.23,14.17,16.14,1
-2.09,1.22,-0.08,59.25,45.95,-88.85,2.73,1.36,4.63,-10.44,-22.26,13.68,0.31,2.08,2.97,21.3,-1.46,24.44,1
-1.64,-0.43,-0.08,122.24,-49.75,-545.88,-1.62,0.16,0.43,16.42,-34.96,-34.17,0.16,1.18,1.32,-185.24,-24.9,193.39,1
-1.94,-0.13,1.72,13.84,-0.92,-4.37,-0.72,0.76,1.03,72.57,225.79,-1127.92,0.16,0.43,0.57,-496.27,-147.94,465.36,1
-1.49,0.62,2.02,16.28,-6.29,0.02,-1.92,0.31,1.33,-0.19,-5.66,-2.44,-0.29,-1.07,-0.48,3.24,0.98,3.94,1
-1.49,1.37,1.72,3.1,-0.43,1,-0.87,0.91,1.18,-2.63,6.55,-6.34,1.51,0.58,-1.08,1.77,12.7,2.96,1
-1.49,0.17,0.07,-1.29,-5.32,-3.4,-1.02,1.51,0.58,-5.56,-8.1,-1.95,0.76,0.58,-0.33,8.61,-7.81,0.52,1
-2.24,1.07,1.27,2.12,-1.9,11.25,-0.72,1.51,-0.92,7.63,0.2,5.38,-0.59,1.93,-0.93,4.21,-5.85,-5.34,1
-2.24,1.37,2.02,8.47,0.05,-2.42,-1.32,0.46,0.73,1.77,7.04,-1.95,0.61,-0.32,-0.18,4.7,-4.39,-3.88,1
-3.14,-0.58,1.72,-46.22,35.21,30.78,-1.32,0.91,2.38,28.13,-49.12,-30.27,-0.44,1.78,1.17,-36.8,24.91,25.91,1
-0.89,1.52,3.82,69.02,-0.92,15.16,1.23,0.16,6.13,12.51,3.13,13.68,2.26,3.13,1.77,-12.88,5.86,-14.62,1
-1.94,1.07,3.22,4.57,3.47,5.39,2.43,1.36,8.83,-7.51,16.8,-5.37,1.51,2.38,2.97,8.61,0.49,3.94,1
1.06,0.62,4.42,5.05,16.66,-15.61,6.63,3.01,12.88,14.95,14.85,-1.95,1.51,3.58,1.47,-4.58,-4.88,-4.37,1
-0.44,0.47,3.52,1.64,15.19,-4.37,14.13,4.06,15.13,18.86,-4.19,14.65,3.46,5.38,1.17,-15.32,0,-4.85,1
-0.89,0.02,0.67,4.57,4.94,-12.19,14.73,5.11,13.78,11.53,30.47,8.31,2.56,3.43,2.82,24.72,0.98,13.7,1
-1.04,0.17,1.72,-186.35,59.14,53.24,13.53,8.86,13.03,-3.12,-30.07,48.83,1.21,3.88,2.22,35.46,11.24,22,1
0.46,-0.43,2.62,16.77,1.03,-93.73,9.33,5.11,11.08,14.46,-2.24,58.11,2.56,2.98,1.32,-20.69,8.31,16.14,1
0.46,-0.73,1.42,66.09,-90.28,-353.98,2.58,3.76,4.03,-61.22,-81.34,81.06,0.01,3.88,0.72,-36.31,169.93,51.3,1
1.21,0.47,1.12,-0.32,-1.9,2.95,2.73,2.11,3.13,-122.74,242.39,-540.03,1.51,2.08,-2.58,-87.58,99.13,655.3,1
-0.29,-0.13,1.27,16.28,-8.25,10.27,0.33,2.11,0.73,5.67,5.57,15.63,1.96,2.83,0.72,2.26,-3.9,21.03,1
-0.29,-0.13,1.72,5.05,-4.83,-0.96,0.18,0.31,0.58,8.12,6.06,-5.37,0.16,2.98,-0.18,-6.53,0.49,0.52,1
-0.44,-0.73,-0.08,0.66,0.54,4.9,-0.27,0.01,-0.17,-2.14,0.2,11.24,0.76,1.03,-0.03,12.03,-2.44,6.87,1
-1.94,0.17,1.27,6.03,-3.36,6.86,0.93,1.81,2.08,3.23,6.55,-2.44,0.16,0.43,-1.23,-1.16,8.31,7.35,1
-2.24,-0.58,1.27,11.89,-14.59,12.23,0.93,0.31,0.28,2.26,-7.61,-6.83,1.21,0.58,-0.03,-0.18,-4.39,-4.37,1
0.01,1.52,-1.28,-2.76,2.01,-3.4,-0.27,0.31,-0.47,7.63,0.69,7.82,0.01,1.03,-1.08,0.31,2.93,-0.46,1
-2.54,0.47,0.37,6.52,-1.9,6.86,-0.27,1.51,-0.47,-2.14,-17.38,-8.3,-0.44,-0.17,0.72,-2.62,-11.71,2.47,1
-1.49,0.62,0.07,7.98,2.01,-9.75,-1.02,0.01,-0.47,2.26,-6.64,5.38,0.01,-0.17,0.72,-18.25,1.96,-2.41,1
-2.69,1.37,-0.68,4.57,2.01,-0.47,-0.42,1.36,-0.77,9.58,2.64,-0.97,-0.44,0.28,0.72,12.03,-1.95,-8.76,1
